Time,Acc_low_X,Acc_low_Y,Acc_low_Z,Gyro_low_X,Gyro_low_Y,Gyro_low_Z,Acc_X,Acc_Y,Acc_Z,Gyro_X,Gyro_Y,Gyro_Z,Euler_X,Euler_Y,Euler_Z
0,0.013224601745605469,0.019162416458129883,1.011697769165039,0.34185266494750977,-0.019343852996826172,0.3466658592224121,1.0850083827972412,-0.748775839805603,0.0,2.1864895820617676,-0.12372328341007233,2.2172749042510986,1.0999484062194824,-0.7402979135513306,0.0
5,0.01566600799560547,0.019650697708129883,1.004129409790039,-0.3146357536315918,-0.5994963645935059,0.026055335998535156,1.1209923028945923,-0.8936612606048584,0.0,2.1849164962768555,-0.12672077119350433,2.217405080795288,1.1096067428588867,-0.8179665803909302,0.0
10,0.01639842987060547,0.018429994583129883,1.006082534790039,-0.009292125701904297,-0.04987812042236328,0.07185697555541992,1.049320101737976,-0.9336411356925964,0.0,2.1848700046539307,-0.12697015702724457,2.217764377593994,1.0895702838897705,-0.8565183281898499,0.0
15,0.015177726745605469,0.013547182083129883,1.009988784790039,0.03650951385498047,-0.1109471321105957,0.27032995223999023,0.768386960029602,-0.8608769178390503,0.0,2.1850526332855225,-0.12752489745616913,2.219115972518921,1.009674072265625,-0.8580209016799927,0.0
20,0.015177726745605469,0.008664369583129883,1.004129409790039,-0.05509376525878906,-0.4773592948913574,0.19399404525756836,0.4943215250968933,-0.8659452795982361,0.0,2.18477725982666,-0.12991169095039368,2.220085859298706,0.9066381454467773,-0.8615124821662903,0.0
25,0.01810741424560547,0.012326478958129883,1.013406753540039,0.3265857696533203,0.11806058883666992,-0.004478931427001953,0.6967663168907166,-1.0235686302185059,0.0,2.1864101886749268,-0.1293213814496994,2.2200634479522705,0.8730865120887756,-0.8879789710044861,0.0
30,0.01761913299560547,0.015500307083129883,1.018533706665039,0.03650951385498047,0.2249307632446289,0.0107879638671875,0.8717441558837891,-0.9909190535545349,0.0,2.1865928173065186,-0.12819673120975494,2.2201173305511475,0.8730515241622925,-0.9017001390457153,0.0
35,0.013957023620605469,0.012814760208129883,1.008523941040039,0.20444822311401367,0.0569920539855957,0.3466658592224121,0.7279171347618103,-0.7928051352500916,0.0,2.187615156173706,-0.127911776304245,2.221850633621216,0.8558213114738464,-0.8878516554832458,0.0
40,0.014689445495605469,0.012814760208129883,1.009500503540039,0.17391395568847656,-0.06514549255371094,-0.11134910583496094,0.7272056937217712,-0.8335964679718018,0.0,2.1884846687316895,-0.1282375007867813,2.2212939262390137,0.8423110842704773,-0.8821159601211548,0.0
45,0.013468742370605469,0.013547182083129883,1.008279800415039,0.05177640914916992,-0.23308420181274414,-0.14188337326049805,0.7697073817253113,-0.7652504444122314,0.0,2.1887435913085938,-0.12940292060375214,2.2205843925476074,0.8352844715118408,-0.8714795708656311,0.0
50,0.014201164245605469,0.010617494583129883,1.005105972290039,0.18918085098266602,0.0569920539855957,0.026055335998535156,0.6051643490791321,-0.8094342947006226,0.0,2.1896893978118896,-0.1291179656982422,2.220714569091797,0.815217912197113,-0.865578293800354,0.0
55,0.010539054870605469,0.011349916458129883,1.007059097290039,0.05177640914916992,-0.15674829483032227,0.30086469650268555,0.6456812620162964,-0.5995506644248962,0.0,2.189948320388794,-0.1299017071723938,2.2222189903259277,0.8013167977333069,-0.8441115021705627,0.0
60,0.015421867370605469,0.018185853958129883,1.007547378540039,-0.2535672187805176,-0.1109471321105957,0.22452878952026367,1.0339341163635254,-0.8767776489257812,0.0,2.188680410385132,-0.13045644760131836,2.223341703414917,0.818061113357544,-0.8471392393112183,0.0
65,0.009318351745605469,0.012326478958129883,1.011453628540039,0.05177640914916992,-0.2178173065185547,0.30086469650268555,0.6981934309005737,-0.5278022289276123,0.0,2.188939332962036,-0.1315455287694931,2.224846124649048,0.8097255825996399,-0.8253036737442017,0.0
70,0.012736320495605469,0.015256166458129883,1.010232925415039,0.021242141723632812,-0.04987812042236328,-0.1571507453918457,0.865125298500061,-0.7222250699996948,0.0,2.1890454292297363,-0.13179491460323334,2.224060297012329,0.8135257363319397,-0.8186501264572144,0.0
75,0.014689445495605469,0.012814760208129883,1.004373550415039,-0.08562803268432617,-0.09567975997924805,0.10239124298095703,0.7309166193008423,-0.8378503918647766,0.0,2.18861722946167,-0.13227331638336182,2.22457218170166,0.8079479932785034,-0.8203016519546509,0.0
80,0.012980461120605469,0.020627260208129883,1.009256362915039,-0.1466965675354004,-0.04987812042236328,-0.17241811752319336,1.1707557439804077,-0.7367101311683655,0.0,2.1878838539123535,-0.13252270221710205,2.223710060119629,0.8286656141281128,-0.8156039118766785,0.0
85,0.010050773620605469,0.021115541458129883,1.002176284790039,0.4029216766357422,-0.6452980041503906,-0.09608221054077148,1.2069649696350098,-0.5744696259498596,0.0,2.1898984909057617,-0.1357491910457611,2.2232296466827393,0.8516610860824585,-0.8052053451538086,0.0
90,0.012003898620605469,0.019650697708129883,1.001688003540039,-0.039826393127441406,-0.26361894607543945,0.33139896392822266,1.1237798929214478,-0.6864488124847412,0.0,2.189699411392212,-0.1370672881603241,2.224886655807495,0.865854799747467,-0.8001771569252014,0.0
95,0.014689445495605469,0.020871400833129883,1.003885269165039,0.3723874092102051,-0.004076957702636719,-0.004478931427001953,1.1909159421920776,-0.8381449580192566,0.0,2.191561460494995,-0.13708767294883728,2.2248642444610596,0.8839542269706726,-0.8021039962768555,0.0
100,0.011759757995605469,0.016476869583129883,1.011453628540039,0.08231067657470703,-0.23308420181274414,0.04132270812988281,0.9332190752029419,-0.6660362482070923,0.0,2.1919729709625244,-0.1382530927658081,2.2250709533691406,0.8867047429084778,-0.7966991662979126,0.0
106,0.01591014862060547,0.021847963333129883,1.009012222290039,0.1586465835571289,-0.43155765533447266,-0.41669273376464844,1.2402673959732056,-0.9031558036804199,0.0,2.1927661895751953,-0.1404108852148056,2.222987413406372,0.9036300778388977,-0.803626537322998,0.0
111,0.01566600799560547,0.016232728958129883,1.007547378540039,0.20444822311401367,-0.3857560157775879,0.11765861511230469,0.9229084849357605,-0.8906850218772888,0.0,2.193992853164673,-0.14272542297840118,2.223693370819092,0.9056472182273865,-0.8096518516540527,0.0
116,0.01957225799560547,0.016476869583129883,1.006082534790039,-0.11616230010986328,-0.20254993438720703,0.30086469650268555,0.938086211681366,-1.1143380403518677,0.0,2.1934120655059814,-0.14373816549777985,2.2251977920532227,0.906453013420105,-0.8234165906906128,0.0
121,0.012492179870605469,0.016232728958129883,1.013895034790039,-0.19249820709228516,-0.23308420181274414,-0.1571507453918457,0.9171726703643799,-0.7058139443397522,0.0,2.1924495697021484,-0.14490358531475067,2.224411964416504,0.905961811542511,-0.819790780544281,0.0
126,0.01566600799560547,0.020627260208129883,1.008279800415039,-0.07036113739013672,0.14859485626220703,-0.06554794311523438,1.1718449592590332,-0.8899674415588379,0.0,2.1920976638793945,-0.14416061341762543,2.2240841388702393,0.9159446954727173,-0.8218007683753967,0.0
131,0.011027336120605469,0.023068666458129883,1.001688003540039,-0.024559497833251953,-0.3857560157775879,-0.08081483840942383,1.3191968202590942,-0.630562424659729,0.0,2.1919748783111572,-0.14608938992023468,2.223680019378662,0.9309115409851074,-0.8165034651756287,0.0
136,0.012003898620605469,0.019894838333129883,1.002420425415039,0.21971559524536133,0.3318009376525879,-0.2640209197998047,1.1369071006774902,-0.6859441995620728,0.0,2.1930735111236572,-0.14443038403987885,2.2223598957061768,0.9394070506095886,-0.8101910948753357,0.0
141,0.01664257049560547,0.018429994583129883,1.008523941040039,-0.08562803268432617,0.6371445655822754,0.33139896392822266,1.0467770099639893,-0.945246160030365,0.0,2.192645311355591,-0.14124466478824615,2.2240169048309326,0.9427393674850464,-0.8118277788162231,0.0
146,0.01615428924560547,0.017209291458129883,1.015359878540039,0.005974769592285156,0.4386711120605469,0.11765861511230469,0.9708878993988037,-0.9113631844520569,0.0,2.1926751136779785,-0.13905130326747894,2.224605083465576,0.9437182545661926,-0.8130677938461304,0.0
151,0.012003898620605469,0.017209291458129883,1.015359878540039,0.18918085098266602,0.08752632141113281,0.10239124298095703,0.9709429144859314,-0.6772395968437195,0.0,2.1936209201812744,-0.13861367106437683,2.2251169681549072,0.945523202419281,-0.8082042932510376,0.0
156,0.012492179870605469,0.016721010208129883,1.013162612915039,-0.07036113739013672,0.1638622283935547,-0.004478931427001953,0.9454391002655029,-0.7063184976577759,0.0,2.1932690143585205,-0.1377943605184555,2.2250945568084717,0.9451798796653748,-0.8041815161705017,0.0
161,0.008830070495605469,0.019650697708129883,1.013406753540039,-0.22303247451782227,0.37760257720947266,-0.23348665237426758,1.1108256578445435,-0.49912622570991516,0.0,2.1921539306640625,-0.13590635359287262,2.2239270210266113,0.9491950869560242,-0.7929666638374329,0.0
166,0.011271476745605469,0.014035463333129883,1.006082534790039,-0.23829984664916992,-0.019343852996826172,0.3924674987792969,0.7992089986801147,-0.6418143510818481,0.0,2.190962314605713,-0.13600307703018188,2.2258894443511963,0.9435563683509827,-0.7885428667068481,0.0
171,0.011759757995605469,0.013303041458129883,1.009256362915039,-0.05509376525878906,0.4234042167663574,-0.1571507453918457,0.7551226019859314,-0.6675167083740234,0.0,2.1906869411468506,-0.13388605415821075,2.2251036167144775,0.9378125071525574,-0.7829700112342834,0.0
176,0.011759757995605469,0.014767885208129883,1.004861831665039,0.1586465835571289,-0.17201566696166992,0.056589603424072266,0.8419253826141357,-0.6704215407371521,0.0,2.1914801597595215,-0.13474613428115845,2.225386619567871,0.9358712434768677,-0.7806224822998047,0.0
181,0.013957023620605469,0.015988588333129883,1.011941909790039,0.18918085098266602,0.20966386795043945,-0.11134910583496094,0.9051066040992737,-0.7900928258895874,0.0,2.1924259662628174,-0.13369780778884888,2.224829912185669,0.935943603515625,-0.7798638939857483,0.0
186,0.010539054870605469,0.012326478958129883,1.009744644165039,-0.11616230010986328,-0.26361894607543945,-0.08081483840942383,0.6993666291236877,-0.5979496240615845,0.0,2.191845178604126,-0.13501590490341187,2.224425792694092,0.9290259480476379,-0.7762619256973267,0.0
191,0.011515617370605469,0.015012025833129883,1.009744644165039,0.23498249053955078,-0.5078935623168945,-0.24875402450561523,0.851706862449646,-0.6533282995223999,0.0,2.1930201053619385,-0.13755537569522858,2.223181962966919,0.9281449913978577,-0.775515079498291,0.0
196,0.012003898620605469,0.019406557083129883,1.011697769165039,-0.16196393966674805,-0.5384278297424316,0.20926141738891602,1.0988452434539795,-0.6796634197235107,0.0,2.1922101974487305,-0.14024750888347626,2.2242283821105957,0.9317198395729065,-0.7756879329681396,0.0
201,0.011759757995605469,0.015744447708129883,1.010965347290039,0.03650951385498047,-0.5078935623168945,-0.1266164779663086,0.8921734690666199,-0.6663655042648315,0.0,2.1923928260803223,-0.14278697967529297,2.223595380783081,0.9309103488922119,-0.7754341959953308,0.0
206,0.013224601745605469,0.014767885208129883,1.006082534790039,0.021242141723632812,-0.43155765533447266,0.16345977783203125,0.8408889174461365,-0.7530084252357483,0.0,2.1924989223480225,-0.14494477212429047,2.224412679672241,0.928817093372345,-0.7769920825958252,0.0
211,0.012003898620605469,0.015744447708129883,1.019998550415039,-0.2077655792236328,0.0569920539855957,0.0107879638671875,0.8842721581459045,-0.6741765141487122,0.0,2.191460132598877,-0.14465981721878052,2.224466562271118,0.9267399907112122,-0.7742602229118347,0.0
216,0.012003898620605469,0.018429994583129883,1.010477066040039,-0.1772313117980957,-0.06514549255371094,0.16345977783203125,1.0448226928710938,-0.6804963946342468,0.0,2.1905739307403564,-0.14498554170131683,2.2252838611602783,0.9286319017410278,-0.7723888754844666,0.0
221,0.01591014862060547,0.016721010208129883,1.012430191040039,0.1281123161315918,-0.1109471321105957,0.0107879638671875,0.9460780620574951,-0.9001954793930054,0.0,2.1912145614624023,-0.1455402821302414,2.2253377437591553,0.9296566843986511,-0.7758526802062988,0.0
226,0.014689445495605469,0.018429994583129883,1.008768081665039,0.18918085098266602,-0.2178173065185547,0.11765861511230469,1.0465552806854248,-0.8341296315193176,0.0,2.1921603679656982,-0.14662936329841614,2.225925922393799,0.9331990480422974,-0.7782223224639893,0.0
231,0.009806632995605469,0.017209291458129883,1.010721206665039,0.25024986267089844,-0.2788858413696289,-0.06554794311523438,0.9754204154014587,-0.5558205842971802,0.0,2.1934115886688232,-0.1480237990617752,2.225598096847534,0.9353493452072144,-0.774705708026886,0.0
236,0.014445304870605469,0.020627260208129883,1.010721206665039,0.21971559524536133,-0.1414813995361328,0.04132270812988281,1.1690367460250854,-0.8186494708061218,0.0,2.1945102214813232,-0.14873120188713074,2.2258048057556152,0.9414522647857666,-0.7763433456420898,0.0
241,0.01761913299560547,0.016476869583129883,1.009744644165039,0.25024986267089844,0.11806058883666992,-0.03501319885253906,0.9347191452980042,-0.9995251893997192,0.0,2.1957614421844482,-0.14814089238643646,2.2256298065185547,0.9425349831581116,-0.7804757952690125,0.0
246,0.015421867370605469,0.019162416458129883,1.004129409790039,-0.1466965675354004,0.04172468185424805,0.19399404525756836,1.0931488275527954,-0.879744827747345,0.0,2.195028066635132,-0.1479322761297226,2.22659969329834,0.9449361562728882,-0.7823275327682495,0.0
251,0.01835155487060547,0.016476869583129883,1.001688003540039,-0.13142967224121094,0.11806058883666992,0.10239124298095703,0.9422211050987244,-1.0494353771209717,0.0,2.194370985031128,-0.14734196662902832,2.227111577987671,0.9442371726036072,-0.7871806025505066,0.0
257,0.01786327362060547,0.019894838333129883,1.002420425415039,-0.3146357536315918,-0.004076957702636719,0.04132270812988281,1.136808156967163,-1.0207098722457886,0.0,2.192797899246216,-0.1473623514175415,2.227318286895752,0.9465413093566895,-0.7918645143508911,0.0
262,0.015177726745605469,0.017697572708129883,1.011453628540039,-0.05509376525878906,0.14859485626220703,0.08712387084960938,1.0022987127304077,-0.8595761060714722,0.0,2.192467451095581,-0.1464707851409912,2.2278411388397217,0.9473124146461487,-0.7923204302787781,0.0
267,0.011027336120605469,0.015988588333129883,1.005838394165039,-0.009292125701904297,0.07225894927978516,-0.004478931427001953,0.9106298089027405,-0.6280479431152344,0.0,2.1924209594726562,-0.14610949158668518,2.227818727493286,0.9465586543083191,-0.7887945771217346,0.0
272,0.014445304870605469,0.018674135208129883,1.013650894165039,0.03650951385498047,-0.004076957702636719,-0.03501319885253906,1.0553135871887207,-0.8163151741027832,0.0,2.192603588104248,-0.14612987637519836,2.2276437282562256,0.9488022923469543,-0.7893370389938354,0.0
277,0.01615428924560547,0.020871400833129883,1.008279800415039,-0.1772313117980957,-0.06514549255371094,0.19399404525756836,1.185701608657837,-0.9176968932151794,0.0,2.1917173862457275,-0.14645560085773468,2.2286136150360107,0.952356219291687,-0.7920535206794739,0.0
282,0.013224601745605469,0.016965150833129883,1.011453628540039,-0.07036113739013672,-0.1414813995361328,0.13292551040649414,0.9608520865440369,-0.7489855289459229,0.0,2.1913654804229736,-0.1471630036830902,2.229278326034546,0.9521669745445251,-0.7919566035270691,0.0
287,0.015421867370605469,0.018674135208129883,1.012674331665039,-0.08562803268432617,0.13332796096801758,0.23979568481445312,1.0563157796859741,-0.8723332285881042,0.0,2.1909372806549072,-0.14649637043476105,2.2304773330688477,0.9536300301551819,-0.7927556037902832,0.0
292,0.01615428924560547,0.017453432083129883,1.009500503540039,0.08231067657470703,0.11806058883666992,0.2550630569458008,0.9903713464736938,-0.9166467189788818,0.0,2.1913487911224365,-0.14590606093406677,2.231752634048462,0.9546884894371033,-0.7943817973136902,0.0
297,0.010050773620605469,0.016476869583129883,1.010232925415039,0.18918085098266602,-0.03461122512817383,0.056589603424072266,0.9343634247779846,-0.5699391961097717,0.0,2.1922945976257324,-0.14607912302017212,2.2320356369018555,0.9552613496780396,-0.7906156182289124,0.0
302,0.011271476745605469,0.015500307083129883,1.006570816040039,-0.26883411407470703,0.0569920539855957,0.11765861511230469,0.8821796774864197,-0.6414893865585327,0.0,2.190950393676758,-0.14579416811466217,2.232623815536499,0.9526777267456055,-0.7877589464187622,0.0
307,0.014201164245605469,0.015256166458129883,1.005350112915039,0.021242141723632812,0.11806058883666992,0.08712387084960938,0.8693087697029114,-0.8091897368431091,0.0,2.191056489944458,-0.1452038586139679,2.2330594062805176,0.9513625502586365,-0.7875435948371887,0.0
312,0.012248039245605469,0.012814760208129883,1.008768081665039,0.03650951385498047,0.37760257720947266,-0.37089109420776367,0.7277570366859436,-0.6955710649490356,0.0,2.19123911857605,-0.143315851688385,2.2312049865722656,0.9477887153625488,-0.7841434478759766,0.0
317,0.010783195495605469,0.017453432083129883,1.009012222290039,-0.26883411407470703,0.0569920539855957,-0.01974630355834961,0.9909207820892334,-0.6121984124183655,0.0,2.189894914627075,-0.14303089678287506,2.2311062812805176,0.9471806883811951,-0.7810172438621521,0.0
322,0.012248039245605469,0.017453432083129883,1.004861831665039,0.09757804870605469,0.0569920539855957,0.13292551040649414,0.9949957132339478,-0.698225736618042,0.0,2.190382719039917,-0.1427459418773651,2.2317709922790527,0.9484411478042603,-0.7793853878974915,0.0
327,0.011271476745605469,0.013058900833129883,1.006570816040039,0.09757804870605469,0.07225894927978516,-0.06554794311523438,0.7432472705841064,-0.6415114402770996,0.0,2.190870523452759,-0.14238464832305908,2.231443166732788,0.9456163644790649,-0.7768093347549438,0.0
332,0.014201164245605469,0.019894838333129883,1.005105972290039,-0.26883411407470703,-0.29415321350097656,-0.004478931427001953,1.133838415145874,-0.8093209266662598,0.0,2.189526319503784,-0.14385540783405304,2.2314207553863525,0.9472851157188416,-0.7787734270095825,0.0
337,0.010539054870605469,0.016476869583129883,1.007303237915039,0.20444822311401367,-0.416290283203125,-0.20295238494873047,0.9370755553245544,-0.5993632674217224,0.0,2.1905486583709717,-0.14593686163425446,2.2304060459136963,0.9481311440467834,-0.7780076265335083,0.0
342,0.01615428924560547,0.020627260208129883,1.009256362915039,0.34185266494750977,-0.18728303909301758,0.04132270812988281,1.1707026958465576,-0.9168139696121216,0.0,2.192257881164551,-0.14687328040599823,2.2306127548217773,0.9532613158226013,-0.7810794115066528,0.0
347,0.01664257049560547,0.016232728958129883,1.010232925415039,0.3723874092102051,0.255465030670166,0.3466658592224121,0.9204418659210205,-0.9436831474304199,0.0,2.194119930267334,-0.1455959528684616,2.2323460578918457,0.954592764377594,-0.7823087573051453,0.0
352,0.01566600799560547,0.020871400833129883,1.006570816040039,-0.19249820709228516,-0.6300311088562012,0.07185697555541992,1.1877228021621704,-0.891473114490509,0.0,2.193157434463501,-0.14874610304832458,2.2327053546905518,0.9571669697761536,-0.7870606184005737,0.0
357,0.014201164245605469,0.018185853958129883,1.013895034790039,0.14337968826293945,0.026457786560058594,-0.01974630355834961,1.0274819135665894,-0.8023343086242676,0.0,2.1938743591308594,-0.1486138105392456,2.2326066493988037,0.9589227437973022,-0.7871583104133606,0.0
362,0.01713085174560547,0.019406557083129883,1.013162612915039,-0.10089540481567383,-0.5994963645935059,0.08712387084960938,1.097177267074585,-0.968504011631012,0.0,2.1933698654174805,-0.1516112983226776,2.2330422401428223,0.9604649543762207,-0.7927864193916321,0.0
367,0.014445304870605469,0.018674135208129883,0.9977817535400391,-0.08562803268432617,-0.06514549255371094,-0.20295238494873047,1.0720902681350708,-0.8292918801307678,0.0,2.192941665649414,-0.15193702280521393,2.232027530670166,0.961670458316803,-0.793639600276947,0.0
372,0.014689445495605469,0.022824525833129883,1.001199722290039,-0.1772313117980957,-0.1109471321105957,-0.004478931427001953,1.3058152198791504,-0.8403560519218445,0.0,2.1920554637908936,-0.1524917632341385,2.2320051193237305,0.9657570719718933,-0.7948596477508545,0.0
377,0.01664257049560547,0.017941713333129883,1.005594253540039,0.18918085098266602,0.17912960052490234,0.16345977783203125,1.022017240524292,-0.9480069279670715,0.0,2.1930012702941895,-0.15159611403942108,2.2328224182128906,0.9674912691116333,-0.7961592674255371,0.0
382,0.014445304870605469,0.017941713333129883,1.011209487915039,0.17391395568847656,0.14859485626220703,0.10239124298095703,1.01637864112854,-0.8182958364486694,0.0,2.193870782852173,-0.15085314214229584,2.2333343029022217,0.9690375924110413,-0.7957387566566467,0.0
387,0.013712882995605469,0.017209291458129883,1.009744644165039,-0.26883411407470703,0.011190414428710938,-0.24875402450561523,0.9763195514678955,-0.7779471278190613,0.0,2.1925265789031982,-0.15079718828201294,2.232090473175049,0.9678137302398682,-0.7954355478286743,0.0
392,0.012248039245605469,0.017697572708129883,1.016092300415039,0.21971559524536133,0.3012666702270508,0.04132270812988281,0.9977637529373169,-0.6905086636543274,0.0,2.1936252117156982,-0.14929085969924927,2.23229718208313,0.9693102240562439,-0.792502760887146,0.0
397,0.014933586120605469,0.014279603958129883,1.007059097290039,0.31131839752197266,-0.12621402740478516,-0.004478931427001953,0.8122823238372803,-0.8494861721992493,0.0,2.1951818466186523,-0.14992192387580872,2.2322747707366943,0.9687023758888245,-0.7939029932022095,0.0
403,0.011759757995605469,0.020138978958129883,1.006814956665039,-0.009292125701904297,0.1638622283935547,-0.06554794311523438,1.1458371877670288,-0.6690595149993896,0.0,2.1951353549957275,-0.1491026133298874,2.2319469451904297,0.9710493087768555,-0.791408360004425,0.0
408,0.013468742370605469,0.017453432083129883,1.009012222290039,0.23498249053955078,-0.04987812042236328,0.3772001266479492,0.9908891320228577,-0.7646496891975403,0.0,2.196545362472534,-0.14940188825130463,2.234210252761841,0.9727059602737427,-0.7913452982902527,0.0
413,0.01591014862060547,0.014035463333129883,1.004861831665039,0.21971559524536133,-0.019343852996826172,0.20926141738891602,0.8001296520233154,-0.9070096015930176,0.0,2.197643995285034,-0.1494986116886139,2.2352566719055176,0.9715021848678589,-0.792974054813385,0.0
418,0.01566600799560547,0.016721010208129883,1.005594253540039,-0.05509376525878906,-0.004076957702636719,0.23979568481445312,0.9525102376937866,-0.8924071788787842,0.0,2.197368621826172,-0.14951899647712708,2.2364556789398193,0.9709810018539429,-0.7942993640899658,0.0
423,0.013468742370605469,0.017453432083129883,1.005594253540039,-0.024559497833251953,-0.17201566696166992,0.316131591796875,0.9942558407783508,-0.7672475576400757,0.0,2.1972458362579346,-0.15037907660007477,2.2380363941192627,0.9711623787879944,-0.7947965860366821,0.0
428,0.012736320495605469,0.016721010208129883,1.017313003540039,0.23498249053955078,0.0569920539855957,0.07185697555541992,0.9415804147720337,-0.7171841263771057,0.0,2.198420763015747,-0.15009412169456482,2.2383956909179688,0.9719412922859192,-0.7935159206390381,0.0
433,0.013712882995605469,0.015500307083129883,1.006814956665039,-0.1466965675354004,0.24019813537597656,-0.03501319885253906,0.8819392919540405,-0.7802314162254333,0.0,2.1976873874664307,-0.14889313280582428,2.238220691680908,0.9700691103935242,-0.7921608090400696,0.0
438,0.01566600799560547,0.017941713333129883,1.008035659790039,-0.05509376525878906,-0.004076957702636719,0.16345977783203125,1.0195590257644653,-0.8902282118797302,0.0,2.1974120140075684,-0.14891351759433746,2.2390379905700684,0.9704225659370422,-0.7934203743934631,0.0
443,0.012003898620605469,0.015744447708129883,1.008523941040039,0.1281123161315918,-0.2788858413696289,-0.20295238494873047,0.8943300247192383,-0.6818444728851318,0.0,2.1980526447296143,-0.15030795335769653,2.238023281097412,0.9701021313667297,-0.79339998960495,0.0
448,0.010050773620605469,0.011594057083129883,1.014383316040039,0.25024986267089844,0.1638622283935547,0.43826913833618164,0.6548106670379639,-0.5676458477973938,0.0,2.1993038654327393,-0.1494886428117752,2.2402145862579346,0.9674242734909058,-0.7897886633872986,0.0
453,0.01664257049560547,0.017941713333129883,1.002908706665039,0.18918085098266602,0.4692058563232422,-0.08081483840942383,1.0247526168823242,-0.9505441784858704,0.0,2.200249671936035,-0.14714261889457703,2.2398104667663574,0.9690638780593872,-0.7894493341445923,0.0
458,0.012736320495605469,0.011105775833129883,1.011941909790039,0.18918085098266602,0.3928699493408203,-0.1571507453918457,0.6287299394607544,-0.7210443019866943,0.0,2.201195478439331,-0.14517827332019806,2.2390246391296387,0.9658470749855042,-0.7866746187210083,0.0
463,0.012492179870605469,0.012570619583129883,1.008523941040039,-0.05509376525878906,0.1943964958190918,0.33139896392822266,0.7140643000602722,-0.7096083164215088,0.0,2.2009201049804688,-0.14420628547668457,2.2406816482543945,0.9625298976898193,-0.784782350063324,0.0
468,0.015177726745605469,0.016232728958129883,1.006570816040039,0.03650951385498047,0.1638622283935547,-0.11134910583496094,0.9238103628158569,-0.8637651205062866,0.0,2.2011027336120605,-0.14338697493076324,2.2401249408721924,0.9622459411621094,-0.7849200963973999,0.0
473,0.015421867370605469,0.018674135208129883,1.009744644165039,0.11284542083740234,0.10279369354248047,0.0107879638671875,1.05937922000885,-0.8748629689216614,0.0,2.201667070388794,-0.14287300407886505,2.2401788234710693,0.963958740234375,-0.7854819893836975,0.0
478,0.015421867370605469,0.018918275833129883,1.012430191040039,0.2960515022277832,-0.1414813995361328,0.2855973243713379,1.070380449295044,-0.8725395798683167,0.0,2.2031474113464355,-0.14358040690422058,2.2416067123413086,0.9666770696640015,-0.787208080291748,0.0
483,0.014201164245605469,0.014767885208129883,1.006082534790039,0.03650951385498047,-0.29415321350097656,-0.1571507453918457,0.8408778309822083,-0.808606743812561,0.0,2.2033300399780273,-0.14505116641521454,2.24082088470459,0.9653851985931396,-0.7889120578765869,0.0
488,0.015421867370605469,0.021115541458129883,1.009744644165039,-0.024559497833251953,-0.309420108795166,-0.01974630355834961,1.1978415250778198,-0.8748213052749634,0.0,2.20320725440979,-0.14659826457500458,2.240722179412842,0.9679629802703857,-0.7914386987686157,0.0
493,0.013224601745605469,0.016232728958129883,1.010232925415039,-0.024559497833251953,-0.019343852996826172,-0.004478931427001953,0.9204878807067871,-0.74989914894104,0.0,2.2030844688415527,-0.14669498801231384,2.2406997680664062,0.9672946333885193,-0.7910557389259338,0.0
498,0.01664257049560547,0.018918275833129883,1.007059097290039,0.11284542083740234,-0.12621402740478516,0.1481928825378418,1.0760658979415894,-0.9466118812561035,0.0,2.203648805618286,-0.1473260521888733,2.241440773010254,0.9690960645675659,-0.7934582233428955,0.0
503,0.01615428924560547,0.017941713333129883,1.005594253540039,0.4334559440612793,-0.1414813995361328,0.43826913833618164,1.0220253467559814,-0.9201979041099548,0.0,2.2058160305023193,-0.14803345501422882,2.2436320781707764,0.9718393683433533,-0.7955958247184753,0.0
508,0.01566600799560547,0.020383119583129883,1.010477066040039,0.09757804870605469,-0.46209192276000977,-0.27928829193115234,1.1554622650146484,-0.8880376815795898,0.0,2.206303834915161,-0.1503439098596573,2.2422356605529785,0.9743900895118713,-0.798921525478363,0.0
513,0.013957023620605469,0.016965150833129883,1.014871597290039,-0.23829984664916992,-0.08041238784790039,-0.1571507453918457,0.9576079845428467,-0.7878006100654602,0.0,2.2051122188568115,-0.15074597299098969,2.2414498329162598,0.9730242490768433,-0.7991946935653687,0.0
518,0.01713085174560547,0.016232728958129883,1.001932144165039,-0.08562803268432617,-0.09567975997924805,-0.03501319885253906,0.9280564785003662,-0.9794087409973145,0.0,2.204684019088745,-0.15122437477111816,2.241274833679199,0.972101628780365,-0.8016684651374817,0.0
523,0.014201164245605469,0.019406557083129883,1.006570816040039,0.09757804870605469,0.3623356819152832,0.3466658592224121,1.104408621788025,-0.8081514239311218,0.0,2.205171823501587,-0.14941269159317017,2.2430081367492676,0.9740425944328308,-0.7999482154846191,0.0
528,0.012248039245605469,0.019650697708129883,1.011697769165039,-0.1466965675354004,0.011190414428710938,0.316131591796875,1.1126623153686523,-0.6934821605682373,0.0,2.2044384479522705,-0.14935673773288727,2.244588851928711,0.9748345613479614,-0.7987273931503296,0.0
533,0.010539054870605469,0.015500307083129883,1.005105972290039,-0.2077655792236328,0.40813684463500977,0.026055335998535156,0.8834719657897949,-0.6006823778152466,0.0,2.203399658203125,-0.14731605350971222,2.2447190284729004,0.9728137254714966,-0.7945557832717896,0.0
538,0.011759757995605469,0.019894838333129883,1.008279800415039,0.06704378128051758,0.011190414428710938,0.2855973243713379,1.1303061246871948,-0.6680911779403687,0.0,2.203734874725342,-0.14726009964942932,2.2461469173431396,0.9748459458351135,-0.7931348085403442,0.0
543,0.01810741424560547,0.014279603958129883,1.009988784790039,0.2655167579650879,0.3318009376525879,0.04132270812988281,0.8098853230476379,-1.0270050764083862,0.0,2.2050623893737793,-0.1456010937690735,2.2463536262512207,0.9743898510932922,-0.7940022349357605,0.0
548,0.010783195495605469,0.013791322708129883,1.013895034790039,-0.11616230010986328,-0.019343852996826172,0.19399404525756836,0.7792633175849915,-0.6092851161956787,0.0,2.204481601715088,-0.14569781720638275,2.247323513031006,0.971735954284668,-0.7921295762062073,0.0
554,0.009074211120605469,0.019162416458129883,1.007791519165039,-0.08562803268432617,0.34706830978393555,0.23979568481445312,1.089261770248413,-0.5157872438430786,0.0,2.203967809677124,-0.14361540973186493,2.248762369155884,0.9724741578102112,-0.7871382832527161,0.0
559,0.014933586120605469,0.019650697708129883,1.006326675415039,-0.2535672187805176,-0.004076957702636719,-0.05028057098388672,1.1185582876205444,-0.8500277400016785,0.0,2.202699899673462,-0.1436357945203781,2.2485110759735107,0.9727591872215271,-0.7878212332725525,0.0
564,0.012248039245605469,0.016476869583129883,1.012918472290039,0.1586465835571289,-0.309420108795166,0.026055335998535156,0.9318645596504211,-0.6926854848861694,0.0,2.203493118286133,-0.14518289268016815,2.2486412525177,0.973115861415863,-0.788355827331543,0.0
569,0.010294914245605469,0.016965150833129883,1.009744644165039,-0.19249820709228516,-0.32468748092651367,0.0107879638671875,0.9625102877616882,-0.58406001329422,0.0,2.2025306224823,-0.14680632948875427,2.248695135116577,0.9720529913902283,-0.7878362536430359,0.0
574,0.014445304870605469,0.016965150833129883,1.001932144165039,0.5555934906005859,-0.15674829483032227,-0.24875402450561523,0.969963550567627,-0.8258833289146423,0.0,2.205308675765991,-0.14759007096290588,2.2474513053894043,0.9747806191444397,-0.78900545835495,0.0
579,0.012736320495605469,0.015988588333129883,1.008279800415039,0.692997932434082,-0.2788858413696289,0.3924674987792969,0.9084073901176453,-0.7236154675483704,0.0,2.208773612976074,-0.14898450672626495,2.2494137287139893,0.9775276184082031,-0.7897132635116577,0.0
584,0.01591014862060547,0.015988588333129883,1.009744644165039,0.41818857192993164,0.08752632141113281,0.3772001266479492,0.9070495367050171,-0.9025992155075073,0.0,2.210864543914795,-0.14854687452316284,2.2512996196746826,0.9788768887519836,-0.7904338240623474,0.0
589,0.011271476745605469,0.020871400833129883,1.009744644165039,-0.07036113739013672,0.11806058883666992,0.056589603424072266,1.1840602159500122,-0.6394124627113342,0.0,2.210512638092041,-0.14795656502246857,2.251582622528076,0.9806134104728699,-0.7883150577545166,0.0
594,0.012248039245605469,0.016965150833129883,1.018045425415039,0.2960515022277832,-0.004076957702636719,-0.06554794311523438,0.9546443223953247,-0.6891928911209106,0.0,2.2119929790496826,-0.14797694981098175,2.2512547969818115,0.9818164110183716,-0.7873339653015137,0.0
599,0.01737499237060547,0.014767885208129883,1.010721206665039,0.14337968826293945,-0.2178173065185547,0.0107879638671875,0.8369789123535156,-0.9847517609596252,0.0,2.212709903717041,-0.1490660309791565,2.2513086795806885,0.9810713529586792,-0.7903950214385986,0.0
604,0.01761913299560547,0.012082338333129883,1.010721206665039,-0.05509376525878906,-0.12621402740478516,-0.1571507453918457,0.6847871541976929,-0.9986212253570557,0.0,2.2124345302581787,-0.14969709515571594,2.2505228519439697,0.9778393507003784,-0.7930995225906372,0.0
609,0.014201164245605469,0.012814760208129883,1.003885269165039,0.11284542083740234,-0.03461122512817383,0.08712387084960938,0.7312771677970886,-0.8103976249694824,0.0,2.212998867034912,-0.1498701572418213,2.2509584426879883,0.9759489297866821,-0.7934426665306091,0.0
614,0.013224601745605469,0.017209291458129883,1.002176284790039,-0.024559497833251953,-0.09567975997924805,0.056589603424072266,0.9836962819099426,-0.7559131383895874,0.0,2.212876081466675,-0.15034855902194977,2.251241445541382,0.9759038686752319,-0.7935456037521362,0.0
619,0.01761913299560547,0.019894838333129883,1.004373550415039,0.1281123161315918,-0.43155765533447266,0.11765861511230469,1.13460373878479,-1.0048059225082397,0.0,2.2135167121887207,-0.15250635147094727,2.2518296241760254,0.9780974388122559,-0.7977579236030579,0.0
624,0.015177726745605469,0.016965150833129883,1.011697769165039,0.1586465835571289,-0.09567975997924805,0.11765861511230469,0.9605942964553833,-0.8593794107437134,0.0,2.2143099308013916,-0.15298475325107574,2.252417802810669,0.9787118434906006,-0.7988339066505432,0.0
629,0.011027336120605469,0.019894838333129883,1.005594253540039,0.17391395568847656,-0.12621402740478516,0.11765861511230469,1.1333329677581787,-0.628156840801239,0.0,2.215179443359375,-0.1536158174276352,2.2530059814453125,0.9810762405395508,-0.7977994680404663,0.0
634,0.01615428924560547,0.017697572708129883,1.009012222290039,-0.07036113739013672,-0.3552217483520508,-0.06554794311523438,1.00470769405365,-0.9170862436294556,0.0,2.214827537536621,-0.15539193153381348,2.252678155899048,0.9809564352035522,-0.8007121682167053,0.0
639,0.013224601745605469,0.018185853958129883,1.006326675415039,0.1281123161315918,-0.18728303909301758,-0.05028057098388672,1.0352197885513306,-0.7527839541435242,0.0,2.215468168258667,-0.15632835030555725,2.252426862716675,0.9821130633354187,-0.8011783361434937,0.0
644,0.013224601745605469,0.019650697708129883,1.020975112915039,0.03650951385498047,-0.04987812042236328,-0.09608221054077148,1.1025426387786865,-0.7419683337211609,0.0,2.215650796890259,-0.15657773613929749,2.251946449279785,0.9834470152854919,-0.8008583784103394,0.0
649,0.015421867370605469,0.019650697708129883,1.006814956665039,0.005974769592285156,-0.08041238784790039,-0.05028057098388672,1.1180078983306885,-0.8773912191390991,0.0,2.2156805992126465,-0.15697979927062988,2.251695156097412,0.9847586750984192,-0.8019858002662659,0.0
654,0.014689445495605469,0.019406557083129883,1.004373550415039,-0.10089540481567383,0.026457786560058594,0.22452878952026367,1.1068159341812134,-0.837762176990509,0.0,2.2151761054992676,-0.1568475067615509,2.2528178691864014,0.9854162931442261,-0.8021939992904663,0.0
659,0.011271476745605469,0.017941713333129883,1.005594253540039,-0.07036113739013672,-0.04987812042236328,0.1481928825378418,1.0220929384231567,-0.6420862674713135,0.0,2.2148241996765137,-0.15709689259529114,2.253558874130249,0.9854139089584351,-0.8009302020072937,0.0
664,0.014689445495605469,0.016965150833129883,1.003396987915039,0.005974769592285156,0.08752632141113281,0.07185697555541992,0.9685446619987488,-0.8386141061782837,0.0,2.2148540019989014,-0.15665926039218903,2.253918170928955,0.9852850437164307,-0.8008506298065186,0.0
669,0.009806632995605469,0.018918275833129883,0.9987583160400391,0.25024986267089844,0.3623356819152832,-0.1266164779663086,1.085102915763855,-0.5624582767486572,0.0,2.2161052227020264,-0.15484757721424103,2.2532851696014404,0.9874576330184937,-0.7968274354934692,0.0
674,0.012980461120605469,0.015256166458129883,1.012918472290039,0.03650951385498047,0.17912960052490234,-0.17241811752319336,0.8628296852111816,-0.7341169118881226,0.0,2.216287851333618,-0.15395192801952362,2.252423048019409,0.986478865146637,-0.7953566312789917,0.0
679,0.013224601745605469,0.014767885208129883,1.018045425415039,-0.13142967224121094,-0.2788858413696289,0.07185697555541992,0.8310108184814453,-0.7441627979278564,0.0,2.2156307697296143,-0.1553463637828827,2.2527823448181152,0.9843877553939819,-0.7962639927864075,0.0
684,0.014933586120605469,0.015500307083129883,1.008279800415039,0.18918085098266602,-0.08041238784790039,0.23979568481445312,0.8806433081626892,-0.8484429121017456,0.0,2.21657657623291,-0.1557484269142151,2.253981351852417,0.9843682646751404,-0.7971434593200684,0.0
689,0.015177726745605469,0.011349916458129883,1.013162612915039,0.20444822311401367,0.08752632141113281,-0.11134910583496094,0.6417549848556519,-0.8582038879394531,0.0,2.2175989151000977,-0.15531079471111298,2.253424644470215,0.9822356700897217,-0.7972704172134399,0.0
694,0.014933586120605469,0.016965150833129883,1.010477066040039,-0.009292125701904297,0.07225894927978516,-0.1876850128173828,0.9617577195167542,-0.8465789556503296,0.0,2.217552423477173,-0.15494950115680695,2.252486228942871,0.9820024967193604,-0.7973631024360657,0.0
700,0.01615428924560547,0.016232728958129883,1.010721206665039,0.21971559524536133,0.17912960052490234,-0.004478931427001953,0.9200046062469482,-0.9155585765838623,0.0,2.218651056289673,-0.15405385196208954,2.2524638175964355,0.9825267791748047,-0.7975513935089111,0.0
705,0.013468742370605469,0.018429994583129883,1.012186050415039,-0.3146357536315918,-0.04987812042236328,0.19399404525756836,1.0430402755737305,-0.7622399926185608,0.0,2.2167632579803467,-0.15435312688350677,2.2536277770996094,0.9812057614326477,-0.7975272536277771,0.0
710,0.014689445495605469,0.016721010208129883,1.004129409790039,0.1281123161315918,-0.2178173065185547,-0.24875402450561523,0.9539132118225098,-0.8380060791969299,0.0,2.2174038887023926,-0.15544220805168152,2.2523839473724365,0.981593668460846,-0.7989726066589355,0.0
715,0.014201164245605469,0.019162416458129883,1.015115737915039,0.38765430450439453,-0.23308420181274414,-0.23348665237426758,1.0813425779342651,-0.8013557195663452,0.0,2.2193422317504883,-0.15660762786865234,2.251216411590576,0.9844129085540771,-0.8001490235328674,0.0
720,0.015421867370605469,0.017697572708129883,1.008279800415039,0.41818857192993164,-0.40102338790893555,0.1481928825378418,1.0054486989974976,-0.8761486411094666,0.0,2.221433162689209,-0.15861274302005768,2.251957416534424,0.9866737723350525,-0.8028178811073303,0.0
725,0.014201164245605469,0.015256166458129883,1.011453628540039,-0.07036113739013672,-0.1414813995361328,-0.2640209197998047,0.8640648722648621,-0.8043085336685181,0.0,2.221081256866455,-0.1593201458454132,2.2506372928619385,0.9852297306060791,-0.8035322427749634,0.0
730,0.013712882995605469,0.021603822708129883,1.004373550415039,0.05177640914916992,0.1943964958190918,-0.34035682678222656,1.232113003730774,-0.7820395827293396,0.0,2.2213401794433594,-0.15834815800189972,2.2489354610443115,0.9876832365989685,-0.8023776412010193,0.0
735,0.013957023620605469,0.018185853958129883,1.010965347290039,-0.05509376525878906,-0.18728303909301758,-0.1876850128173828,1.0304616689682007,-0.7908267378807068,0.0,2.221064805984497,-0.1592845767736435,2.2479970455169678,0.9877893924713135,-0.8032033443450928,0.0
740,0.01688671112060547,0.014767885208129883,1.012674331665039,-0.009292125701904297,-0.12621402740478516,0.2550630569458008,0.8353721499443054,-0.9552377462387085,0.0,2.2210183143615723,-0.15991564095020294,2.249272346496582,0.9863975644111633,-0.8051712512969971,0.0
745,0.013957023620605469,0.017209291458129883,1.013895034790039,0.03650951385498047,0.04172468185424805,-0.20295238494873047,0.9723212718963623,-0.7885558605194092,0.0,2.221200942993164,-0.15970702469348907,2.248257637023926,0.9864547252655029,-0.804818332195282,0.0
750,0.013712882995605469,0.017453432083129883,1.014139175415039,0.03650951385498047,-0.43155765533447266,0.5146050453186035,0.9858784079551697,-0.7745742797851562,0.0,2.221383571624756,-0.16186481714248657,2.25083065032959,0.9866306185722351,-0.8066921830177307,0.0
755,0.01737499237060547,0.019162416458129883,1.004861831665039,-0.11616230010986328,0.011190414428710938,0.08712387084960938,1.092317819595337,-0.9904183745384216,0.0,2.2208027839660645,-0.16180886328220367,2.2512662410736084,0.9869776368141174,-0.8082407116889954,0.0
760,0.01737499237060547,0.013791322708129883,1.006570816040039,0.3265857696533203,-0.15674829483032227,0.056589603424072266,0.7848603129386902,-0.9888240694999695,0.0,2.222435712814331,-0.16259260475635529,2.251549243927002,0.9868382215499878,-0.8105884790420532,0.0
765,0.014933586120605469,0.019650697708129883,1.011209487915039,0.28078413009643555,-0.03461122512817383,0.3924674987792969,1.1131596565246582,-0.8459253907203674,0.0,2.223839521408081,-0.16276566684246063,2.253511667251587,0.9893248677253723,-0.8110662698745728,0.0
770,0.008830070495605469,0.020138978958129883,1.003641128540039,-0.039826393127441406,-0.09567975997924805,-0.20295238494873047,1.1494935750961304,-0.5039758682250977,0.0,2.2236404418945312,-0.1632440686225891,2.2524969577789307,0.9905107617378235,-0.80888831615448,0.0
775,0.010783195495605469,0.015988588333129883,1.006814956665039,0.11284542083740234,0.13332796096801758,0.22452878952026367,0.9097492098808289,-0.613548755645752,0.0,2.2242047786712646,-0.16257743537425995,2.25361967086792,0.9903750419616699,-0.8065462708473206,0.0
780,0.01908397674560547,0.018674135208129883,1.003641128540039,0.021242141723632812,-0.1414813995361328,-0.2640209197998047,1.0657517910003662,-1.0891447067260742,0.0,2.224310874938965,-0.16328483819961548,2.2522995471954346,0.9911268353462219,-0.8096712827682495,0.0
785,0.014689445495605469,0.018674135208129883,1.006082534790039,0.14337968826293945,-0.1109471321105957,-0.1266164779663086,1.0632450580596924,-0.8363513946533203,0.0,2.2250277996063232,-0.16383957862854004,2.25166654586792,0.9924540519714355,-0.8104493021965027,0.0
790,0.011027336120605469,0.019162416458129883,1.010721206665039,0.2655167579650879,-0.2178173065185547,0.0107879638671875,1.0860846042633057,-0.6249806880950928,0.0,2.2263553142547607,-0.16492865979671478,2.251720428466797,0.9945679306983948,-0.8099492192268372,0.0
795,0.013224601745605469,0.019162416458129883,1.006570816040039,-0.009292125701904297,0.1943964958190918,0.5604066848754883,1.0905325412750244,-0.7525879144668579,0.0,2.226308822631836,-0.1639566719532013,2.2545225620269775,0.995336651802063,-0.8084985017776489,0.0
800,0.014933586120605469,0.015012025833129883,1.013406753540039,-0.08562803268432617,-0.40102338790893555,0.10239124298095703,0.8485925793647766,-0.8441582918167114,0.0,2.2258806228637695,-0.16596178710460663,2.2550344467163086,0.9936702847480774,-0.8107883930206299,0.0
805,0.012248039245605469,0.016965150833129883,1.012674331665039,0.005974769592285156,0.0569920539855957,0.026055335998535156,0.9597059488296509,-0.692846953868866,0.0,2.2259104251861572,-0.16567683219909668,2.255164623260498,0.9934133887290955,-0.8095109462738037,0.0
810,0.014933586120605469,0.016232728958129883,1.017313003540039,-0.1772313117980957,-0.4773592948913574,-0.03501319885253906,0.9140626192092896,-0.84090256690979,0.0,2.2250242233276367,-0.16806362569332123,2.2549896240234375,0.9918674826622009,-0.8121416568756104,0.0
815,0.014445304870605469,0.016721010208129883,1.011209487915039,0.09757804870605469,-0.08041238784790039,0.5756735801696777,0.9472402334213257,-0.8183127641677856,0.0,2.2255120277404785,-0.16846568882465363,2.2578680515289307,0.9919772148132324,-0.8125920295715332,0.0
820,0.012003898620605469,0.016232728958129883,1.004861831665039,0.11284542083740234,-0.1109471321105957,0.33139896392822266,0.9254204034805298,-0.684323251247406,0.0,2.226076364517212,-0.16902042925357819,2.2595250606536865,0.9919805526733398,-0.8120703101158142,0.0
825,0.01810741424560547,0.013547182083129883,1.015848159790039,0.25024986267089844,-0.15674829483032227,0.2550630569458008,0.7639203667640686,-1.0210938453674316,0.0,2.227327585220337,-0.1698041707277298,2.260800361633301,0.9913215041160583,-0.8145887851715088,0.0
830,0.01591014862060547,0.018185853958129883,1.009500503540039,0.005974769592285156,0.20966386795043945,0.10239124298095703,1.0319268703460693,-0.9027841687202454,0.0,2.2273573875427246,-0.16875584423542023,2.261312246322632,0.9916883707046509,-0.8142816424369812,0.0
835,0.014689445495605469,0.012570619583129883,1.011209487915039,0.021242141723632812,-0.004076957702636719,0.07185697555541992,0.71214759349823,-0.8321905732154846,0.0,2.227463483810425,-0.1687762290239334,2.261671543121338,0.9894789457321167,-0.8144501447677612,0.0
840,0.01688671112060547,0.018918275833129883,1.007791519165039,0.38765430450439453,-0.12621402740478516,-0.14188337326049805,1.075279951095581,-0.9597980976104736,0.0,2.2294018268585205,-0.16940729320049286,2.2609620094299316,0.9921096563339233,-0.8162760734558105,0.0
846,0.01908397674560547,0.020138978958129883,1.008523941040039,-0.07036113739013672,-0.06514549255371094,0.0107879638671875,1.1437692642211914,-1.0838443040847778,0.0,2.2290499210357666,-0.16973301768302917,2.2610158920288086,0.9930092692375183,-0.8188018798828125,0.0
851,0.013468742370605469,0.016721010208129883,1.005838394165039,0.11284542083740234,-0.26361894607543945,0.026055335998535156,0.952309250831604,-0.7670709490776062,0.0,2.229727029800415,-0.17131473124027252,2.261172294616699,0.9933458566665649,-0.8199449181556702,0.0
856,0.01639842987060547,0.015012025833129883,1.012674331665039,0.11284542083740234,-0.17201566696166992,-0.14188337326049805,0.8491871356964111,-0.9276185631752014,0.0,2.2302913665771484,-0.17217481136322021,2.260462760925293,0.9927226901054382,-0.8216813802719116,0.0
861,0.01810741424560547,0.018429994583129883,0.9980258941650391,0.09757804870605469,0.0569920539855957,0.2550630569458008,1.0577553510665894,-1.0392394065856934,0.0,2.2307791709899902,-0.17188985645771027,2.2617380619049072,0.9937386512756348,-0.8231787085533142,0.0
866,0.01835155487060547,0.019162416458129883,1.009256362915039,0.11284542083740234,-0.06514549255371094,-0.27928829193115234,1.08754563331604,-1.0415207147598267,0.0,2.2313435077667236,-0.17221558094024658,2.2603416442871094,0.9950636625289917,-0.8252832293510437,0.0
871,0.014689445495605469,0.015012025833129883,1.008523941040039,-0.07036113739013672,-0.416290283203125,0.056589603424072266,0.8527026176452637,-0.8343783020973206,0.0,2.2309916019439697,-0.174297034740448,2.260624647140503,0.9935563802719116,-0.8274217247962952,0.0
876,0.01615428924560547,0.017697572708129883,1.006326675415039,0.11284542083740234,0.08752632141113281,0.10239124298095703,1.0073877573013306,-0.9195324778556824,0.0,2.231555938720703,-0.1738594025373459,2.261136531829834,0.9942282438278198,-0.8277351260185242,0.0
881,0.014201164245605469,0.017697572708129883,1.011697769165039,-0.13142967224121094,0.255465030670166,0.08712387084960938,1.0020710229873657,-0.8040829300880432,0.0,2.230898857116699,-0.17258207499980927,2.2615721225738525,0.9936398863792419,-0.8262767195701599,0.0
886,0.01591014862060547,0.018674135208129883,1.008279800415039,0.28078413009643555,0.1943964958190918,0.46880340576171875,1.0609095096588135,-0.9038686156272888,0.0,2.232302665710449,-0.17161008715629578,2.263916254043579,0.995575487613678,-0.825938880443573,0.0
891,0.014689445495605469,0.013791322708129883,1.010477066040039,0.5097918510437012,-0.26361894607543945,-0.06554794311523438,0.7818604707717896,-0.8327804803848267,0.0,2.234851598739624,-0.17292818427085876,2.2635884284973145,0.9963832497596741,-0.8273014426231384,0.0
896,0.013224601745605469,0.016721010208129883,1.013162612915039,0.20444822311401367,0.08752632141113281,0.07185697555541992,0.9454304575920105,-0.7477256655693054,0.0,2.2358739376068115,-0.17249055206775665,2.2639477252960205,0.99698805809021,-0.8262283205986023,0.0
901,0.014201164245605469,0.018429994583129883,1.011209487915039,-0.07036113739013672,-0.26361894607543945,-0.3556241989135742,1.044036865234375,-0.8044606447219849,0.0,2.2355220317840576,-0.17380864918231964,2.262169599533081,0.9970159530639648,-0.827361524105072,0.0
906,0.015421867370605469,0.015988588333129883,1.003641128540039,0.06704378128051758,0.08752632141113281,0.04132270812988281,0.9125702381134033,-0.8802213072776794,0.0,2.2358572483062744,-0.17337101697921753,2.262376308441162,0.9966737627983093,-0.8273497819900513,0.0
911,0.015421867370605469,0.016232728958129883,1.009988784790039,0.05177640914916992,-0.3552217483520508,0.16345977783203125,0.920681893825531,-0.8746880888938904,0.0,2.2361161708831787,-0.1751471310853958,2.2631936073303223,0.9963248372077942,-0.8294890522956848,0.0
916,0.013224601745605469,0.021603822708129883,1.010232925415039,0.11284542083740234,0.4234042167663574,0.2550630569458008,1.2249780893325806,-0.7498245239257812,0.0,2.236680507659912,-0.17303010821342468,2.2644689083099365,0.9987027049064636,-0.8267554044723511,0.0
921,0.011515617370605469,0.019650697708129883,1.005350112915039,-0.2077655792236328,-0.019343852996826172,0.07185697555541992,1.1196943521499634,-0.6561310887336731,0.0,2.2356417179107666,-0.17312683165073395,2.2648282051086426,0.9986318349838257,-0.8254979252815247,0.0
926,0.010294914245605469,0.019650697708129883,1.013406753540039,0.1586465835571289,-0.06514549255371094,-0.09608221054077148,1.1108105182647705,-0.5819222927093506,0.0,2.2364349365234375,-0.17345255613327026,2.264347791671753,1.000306487083435,-0.8238934874534607,0.0
931,0.014933586120605469,0.018429994583129883,1.008768081665039,-0.009292125701904297,-0.03461122512817383,-0.11134910583496094,1.0465515851974487,-0.8479909896850586,0.0,2.2363884449005127,-0.1736256182193756,2.263791084289551,1.000625491142273,-0.8242554068565369,0.0
936,0.012492179870605469,0.018674135208129883,1.010477066040039,0.31131839752197266,-0.3552217483520508,0.22452878952026367,1.0586540699005127,-0.708171010017395,0.0,2.237945079803467,-0.1754017323255539,2.26491379737854,1.0026270151138306,-0.8251031041145325,0.0
941,0.011027336120605469,0.018918275833129883,1.006814956665039,-0.08562803268432617,0.13332796096801758,-0.21821928024291992,1.076409101486206,-0.6274073123931885,0.0,2.2375168800354004,-0.17473509907722473,2.2638227939605713,1.0027822256088257,-0.8228879570960999,0.0
946,0.01615428924560547,0.020871400833129883,1.009988784790039,0.021242141723632812,-0.2788858413696289,0.13292551040649414,1.1836963891983032,-0.9161449670791626,0.0,2.2376229763031006,-0.1761295348405838,2.2644875049591064,1.0043063163757324,-0.8250027894973755,0.0
951,0.012492179870605469,0.016721010208129883,1.015115737915039,0.005974769592285156,-0.2788858413696289,0.3772001266479492,0.9436206221580505,-0.7049599885940552,0.0,2.2376527786254883,-0.17752397060394287,2.2663733959198,1.0038611888885498,-0.8254470229148865,0.0
956,0.011759757995605469,0.013547182083129883,1.010477066040039,0.08231067657470703,0.011190414428710938,-0.06554794311523438,0.7680503726005554,-0.6667084097862244,0.0,2.2380642890930176,-0.17746801674365997,2.266045570373535,1.002428412437439,-0.8241521120071411,0.0
961,0.012492179870605469,0.015744447708129883,1.010232925415039,0.11284542083740234,0.2249307632446289,0.3466658592224121,0.8928123712539673,-0.7083770632743835,0.0,2.238628625869751,-0.17634336650371552,2.2677788734436035,1.0021342039108276,-0.8221341967582703,0.0
966,0.015177726745605469,0.018674135208129883,1.005838394165039,-0.1772313117980957,0.10279369354248047,0.056589603424072266,1.063495397567749,-0.8643574118614197,0.0,2.2377424240112305,-0.17582939565181732,2.268061876296997,1.0017319917678833,-0.8219524621963501,0.0
971,0.012736320495605469,0.015988588333129883,1.003885269165039,-0.039826393127441406,-0.04987812042236328,0.1787271499633789,0.9123826622962952,-0.7267820239067078,0.0,2.2375433444976807,-0.17607878148555756,2.2689554691314697,1.0008412599563599,-0.82146155834198,0.0
976,0.014201164245605469,0.020138978958129883,1.011209487915039,-0.22303247451782227,-0.019343852996826172,0.0107879638671875,1.1408241987228394,-0.8044347167015076,0.0,2.2364282608032227,-0.17617550492286682,2.2690093517303467,1.0008184909820557,-0.82142573595047,0.0
981,0.01713085174560547,0.017453432083129883,1.006814956665039,0.05177640914916992,-0.4468250274658203,-0.17241811752319336,0.9929959177970886,-0.9746412634849548,0.0,2.236687183380127,-0.1784096360206604,2.2681472301483154,1.0010149478912354,-0.8248264193534851,0.0
986,0.012980461120605469,0.016965150833129883,1.000467300415039,0.20444822311401367,-0.29415321350097656,0.1787271499633789,0.971402645111084,-0.7432296872138977,0.0,2.2377095222473145,-0.17988039553165436,2.269040822982788,1.0018008947372437,-0.8256566524505615,0.0
991,0.01639842987060547,0.015988588333129883,1.009744644165039,0.3571200370788574,-0.019343852996826172,-0.20295238494873047,0.9070425033569336,-0.9302951097488403,0.0,2.239495038986206,-0.17997711896896362,2.268026113510132,1.0028434991836548,-0.8265579342842102,0.0
997,0.011515617370605469,0.017941713333129883,1.008523941040039,0.17391395568847656,0.07225894927978516,-0.24875402450561523,1.0191221237182617,-0.6540878415107727,0.0,2.2403645515441895,-0.1796158254146576,2.266782283782959,1.003831386566162,-0.8248746991157532,0.0
1002,0.013712882995605469,0.013791322708129883,1.009256362915039,0.11284542083740234,-0.4773592948913574,0.16345977783203125,0.782816469669342,-0.778363823890686,0.0,2.241041660308838,-0.18247997760772705,2.267763137817383,1.0028047561645508,-0.8273594379425049,0.0
1007,0.01688671112060547,0.016721010208129883,1.008035659790039,0.20444822311401367,0.08752632141113281,-0.03501319885253906,0.9501857161521912,-0.9596027135848999,0.0,2.2420639991760254,-0.18204234540462494,2.2675881385803223,1.0034154653549194,-0.8279395699501038,0.0
1012,0.012736320495605469,0.017453432083129883,1.008035659790039,0.03650951385498047,0.24019813537597656,0.27032995223999023,0.9918580651283264,-0.7237732410430908,0.0,2.242246627807617,-0.1808413565158844,2.268939733505249,1.0035080909729004,-0.8259503245353699,0.0
1017,0.013957023620605469,0.018918275833129883,1.010477066040039,-0.1466965675354004,-0.09567975997924805,0.2550630569458008,1.072471022605896,-0.791198194026947,0.0,2.241513252258301,-0.18131975829601288,2.2702150344848633,1.0033072233200073,-0.8261594772338867,0.0
1022,0.012492179870605469,0.015988588333129883,1.010721206665039,0.09757804870605469,-0.3399543762207031,0.0107879638671875,0.906216561794281,-0.7080322504043579,0.0,2.2420010566711426,-0.18301953375339508,2.2702689170837402,1.0030509233474731,-0.8269452452659607,0.0
1027,0.012736320495605469,0.014279603958129883,1.013895034790039,0.18918085098266602,-0.15674829483032227,0.04132270812988281,0.8068314790725708,-0.7196274399757385,0.0,2.2429468631744385,-0.1838032752275467,2.2704756259918213,1.0024957656860352,-0.8269059658050537,0.0
1032,0.014445304870605469,0.018674135208129883,1.003641128540039,-0.1466965675354004,-0.3399543762207031,-0.1571507453918457,1.0658340454101562,-0.8244526982307434,0.0,2.242213487625122,-0.1855030506849289,2.2696897983551025,1.0022492408752441,-0.8285741209983826,0.0
1037,0.013712882995605469,0.014767885208129883,1.015848159790039,0.05177640914916992,0.3318009376525879,0.13292551040649414,0.832802414894104,-0.7733041644096375,0.0,2.2424724102020264,-0.18384404480457306,2.2703545093536377,1.0012208223342896,-0.8265084624290466,0.0
1042,0.009806632995605469,0.016232728958129883,1.010965347290039,-0.1466965675354004,0.0569920539855957,-0.11134910583496094,0.9198566675186157,-0.5556952357292175,0.0,2.24173903465271,-0.1835590898990631,2.2697978019714355,0.9998767375946045,-0.8241748809814453,0.0
1047,0.013957023620605469,0.018185853958129883,1.011453628540039,0.03650951385498047,-0.06514549255371094,-0.08081483840942383,1.0299644470214844,-0.7904451489448547,0.0,2.2419216632843018,-0.18388481438159943,2.2693936824798584,1.000285267829895,-0.8242431879043579,0.0
1052,0.013224601745605469,0.015988588333129883,1.014871597290039,0.3723874092102051,-0.1109471321105957,0.07185697555541992,0.9025034308433533,-0.7464756965637207,0.0,2.243783712387085,-0.184439554810524,2.2697529792785645,1.0013952255249023,-0.8242068886756897,0.0
1057,0.012003898620605469,0.017697572708129883,1.012674331665039,-0.11616230010986328,-0.12621402740478516,0.10239124298095703,1.0011330842971802,-0.6790292859077454,0.0,2.2432029247283936,-0.18507061898708344,2.2702648639678955,1.000816822052002,-0.8237394690513611,0.0
1062,0.012980461120605469,0.016476869583129883,1.006082534790039,0.021242141723632812,0.20966386795043945,0.10239124298095703,0.9381856322288513,-0.7390891313552856,0.0,2.2433090209960938,-0.18402229249477386,2.2707767486572266,1.0004512071609497,-0.8220623731613159,0.0
1067,0.012003898620605469,0.016965150833129883,1.007303237915039,0.38765430450439453,-0.1109471321105957,0.08712387084960938,0.9648243188858032,-0.6826570630073547,0.0,2.2452473640441895,-0.18457703292369843,2.271212339401245,1.0021073818206787,-0.8215661644935608,0.0
1072,0.012980461120605469,0.016476869583129883,1.006326675415039,0.18918085098266602,-0.23308420181274414,0.056589603424072266,0.9379580616950989,-0.738909900188446,0.0,2.2461931705474854,-0.18574245274066925,2.2714953422546387,1.0025652647018433,-0.8221032023429871,0.0
1077,0.01591014862060547,0.014767885208129883,1.009744644165039,0.08231067657470703,-0.2788858413696289,-0.08081483840942383,0.8378080129623413,-0.9026157855987549,0.0,2.2466046810150146,-0.18713688850402832,2.2710912227630615,1.001740574836731,-0.8240898251533508,0.0
1082,0.01664257049560547,0.015744447708129883,1.006326675415039,-0.05509376525878906,0.011190414428710938,0.056589603424072266,0.8962233662605286,-0.94735187292099,0.0,2.2463293075561523,-0.18708093464374542,2.271374225616455,1.0006786584854126,-0.824955403804779,0.0
1087,0.013224601745605469,0.018918275833129883,0.9985141754150391,0.2655167579650879,-0.1414813995361328,0.13292551040649414,1.0853252410888672,-0.7586608529090881,0.0,2.24765682220459,-0.18778833746910095,2.2720389366149902,1.002627968788147,-0.8251628875732422,0.0
1092,0.01639842987060547,0.020871400833129883,1.006814956665039,-0.1466965675354004,0.0569920539855957,0.08712387084960938,1.187421202659607,-0.9329181909561157,0.0,2.2469234466552734,-0.187503382563591,2.272474527359009,1.0032765865325928,-0.8256828188896179,0.0
1097,0.014445304870605469,0.017209291458129883,1.014627456665039,0.47925758361816406,-0.019343852996826172,0.2550630569458008,0.9716131091117859,-0.815550684928894,0.0,2.2493197917938232,-0.18760010600090027,2.273749828338623,1.0054196119308472,-0.8257034420967102,0.0
1102,0.012736320495605469,0.017941713333129883,1.010965347290039,-0.05509376525878906,0.10279369354248047,0.0107879638671875,1.0166471004486084,-0.7216705679893494,0.0,2.249044418334961,-0.18708613514900208,2.2738037109375,1.0052295923233032,-0.8244205713272095,0.0
1107,0.01566600799560547,0.015744447708129883,1.007303237915039,-0.039826393127441406,-0.004076957702636719,0.1481928825378418,0.8953688144683838,-0.8909076452255249,0.0,2.248845338821411,-0.18710651993751526,2.2745447158813477,1.004217267036438,-0.8249338865280151,0.0
1112,0.015177726745605469,0.018918275833129883,1.012186050415039,0.06704378128051758,-0.20254993438720703,0.16345977783203125,1.0706424713134766,-0.8589356541633606,0.0,2.249180555343628,-0.18811926245689392,2.275362014770508,1.0050419569015503,-0.8261909484863281,0.0
1117,0.014933586120605469,0.017941713333129883,1.009500503540039,-0.26883411407470703,0.24019813537597656,0.0107879638671875,1.0180914402008057,-0.8473833799362183,0.0,2.2478363513946533,-0.18691827356815338,2.2754158973693848,1.0038042068481445,-0.8251555562019348,0.0
1122,0.011759757995605469,0.014767885208129883,1.012918472290039,0.25024986267089844,-0.23308420181274414,-0.03501319885253906,0.8352306485176086,-0.6650906801223755,0.0,2.2490875720977783,-0.1880836933851242,2.275240898132324,1.0038013458251953,-0.8251304030418396,0.0
1127,0.01591014862060547,0.015744447708129883,1.008035659790039,-0.08562803268432617,0.4386711120605469,0.36193323135375977,0.8947151303291321,-0.9041322469711304,0.0,2.248659372329712,-0.185890331864357,2.277050495147705,1.0025720596313477,-0.8235357999801636,0.0
1132,0.01664257049560547,0.017941713333129883,1.006570816040039,0.021242141723632812,-0.20254993438720703,0.08712387084960938,1.0210261344909668,-0.9470876455307007,0.0,2.248765468597412,-0.18690307438373566,2.2774860858917236,1.0028133392333984,-0.8254508972167969,0.0
1137,0.012736320495605469,0.018185853958129883,1.008035659790039,-0.039826393127441406,-0.18728303909301758,-0.09608221054077148,1.033471941947937,-0.7237639427185059,0.0,2.2485663890838623,-0.18783949315547943,2.277005672454834,1.0028412342071533,-0.825632631778717,0.0
1143,0.011515617370605469,0.017941713333129883,1.019021987915039,0.34185266494750977,-0.1109471321105957,-0.1266164779663086,1.0086265802383423,-0.6473520398139954,0.0,2.2502756118774414,-0.188394233584404,2.2763726711273193,1.0045803785324097,-0.8248739838600159,0.0
1148,0.013468742370605469,0.014767885208129883,1.012186050415039,-0.10089540481567383,-0.1414813995361328,0.33139896392822266,0.835817277431488,-0.7622851729393005,0.0,2.2496702671051025,-0.1892431229352951,2.2783610820770264,1.0027384757995605,-0.8252564072608948,0.0
1153,0.014201164245605469,0.017697572708129883,1.007059097290039,-0.2535672187805176,-0.04987812042236328,-0.09608221054077148,1.0066847801208496,-0.8077850341796875,0.0,2.2484023571014404,-0.18949250876903534,2.2778806686401367,1.0015089511871338,-0.8253756761550903,0.0
1158,0.013224601745605469,0.015012025833129883,1.010232925415039,-0.13142967224121094,0.08752632141113281,-0.21821928024291992,0.8512777090072632,-0.7499131560325623,0.0,2.2477452754974365,-0.18905487656593323,2.276789665222168,0.999754786491394,-0.8243878483772278,0.0
1163,0.01566600799560547,0.018185853958129883,1.008035659790039,0.20444822311401367,-0.23308420181274414,0.16345977783203125,1.0334296226501465,-0.8902243375778198,0.0,2.248767614364624,-0.19022029638290405,2.277606964111328,1.0010161399841309,-0.826026976108551,0.0
1168,0.013957023620605469,0.017697572708129883,1.010965347290039,-0.26883411407470703,0.0569920539855957,-0.17241811752319336,1.0027999877929688,-0.7908335328102112,0.0,2.2474234104156494,-0.1899353414773941,2.276744842529297,0.9996948838233948,-0.8254866600036621,0.0
1173,0.012003898620605469,0.015500307083129883,1.013406753540039,-0.3451700210571289,0.31653404235839844,0.0107879638671875,0.8762233257293701,-0.6785628199577332,0.0,2.245697498321533,-0.18835267424583435,2.276798725128174,0.997079610824585,-0.8228421807289124,0.0
1178,0.014689445495605469,0.016476869583129883,1.008035659790039,-0.07036113739013672,0.1638622283935547,0.04132270812988281,0.9363466501235962,-0.8347634077072144,0.0,2.2453455924987793,-0.18753336369991302,2.277005434036255,0.9962872862815857,-0.8221158385276794,0.0
1183,0.009318351745605469,0.016476869583129883,1.008279800415039,0.14337968826293945,-0.019343852996826172,0.3924674987792969,0.9361793994903564,-0.5294321775436401,0.0,2.2460625171661377,-0.1876300871372223,2.27896785736084,0.9965609908103943,-0.82007896900177,0.0
1188,0.013957023620605469,0.020138978958129883,1.012918472290039,-0.22303247451782227,0.37760257720947266,-0.004478931427001953,1.138904094696045,-0.789273738861084,0.0,2.2449474334716797,-0.1857420802116394,2.2789454460144043,0.9964900016784668,-0.8179804682731628,0.0
1193,0.012492179870605469,0.016965150833129883,1.002664566040039,-0.039826393127441406,0.1943964958190918,0.0107879638671875,0.9692806601524353,-0.7137079834938049,0.0,2.24474835395813,-0.18477009236812592,2.2789993286132812,0.9960945248603821,-0.8162575364112854,0.0
1198,0.011759757995605469,0.020627260208129883,1.004373550415039,-0.039826393127441406,0.07225894927978516,0.16345977783203125,1.1764625310897827,-0.670678436756134,0.0,2.24454927444458,-0.18440879881381989,2.2798166275024414,0.997206449508667,-0.8148418068885803,0.0
1203,0.01566600799560547,0.015744447708129883,1.017801284790039,0.38765430450439453,-0.004076957702636719,-0.14188337326049805,0.8861372470855713,-0.8817221522331238,0.0,2.246487617492676,-0.18442918360233307,2.279107093811035,0.9983251690864563,-0.8153470754623413,0.0
1208,0.013712882995605469,0.017697572708129883,1.009500503540039,0.05177640914916992,-0.20254993438720703,-0.06554794311523438,1.0042579174041748,-0.7781286835670471,0.0,2.24674654006958,-0.18544192612171173,2.2787792682647705,0.9986251592636108,-0.8160828948020935,0.0
1213,0.014445304870605469,0.017941713333129883,1.011941909790039,0.06704378128051758,-0.03461122512817383,0.4535360336303711,1.0156433582305908,-0.8177038431167603,0.0,2.247081756591797,-0.18561498820781708,2.2810468673706055,0.9990810751914978,-0.8162664175033569,0.0
1218,0.01566600799560547,0.020627260208129883,1.012186050415039,0.03650951385498047,-0.15674829483032227,-0.11134910583496094,1.1673247814178467,-0.8865348100662231,0.0,2.2472643852233887,-0.1863987296819687,2.2804901599884033,1.0004782676696777,-0.817552387714386,0.0
1223,0.011515617370605469,0.017453432083129883,1.011453628540039,0.1281123161315918,-0.1109471321105957,-0.08081483840942383,0.9885218143463135,-0.6521995067596436,0.0,2.2479050159454346,-0.18695347011089325,2.280086040496826,1.0010278224945068,-0.8169093728065491,0.0
1228,0.014933586120605469,0.019894838333129883,1.009988784790039,0.11284542083740234,0.1943964958190918,-0.06554794311523438,1.1283475160598755,-0.8469432592391968,0.0,2.248469352722168,-0.18598148226737976,2.2797582149505615,1.002506136894226,-0.8161609768867493,0.0
1233,0.012492179870605469,0.015256166458129883,1.005105972290039,0.05177640914916992,-0.5231609344482422,0.2855973243713379,0.8695394992828369,-0.711994469165802,0.0,2.2487282752990723,-0.18859729170799255,2.281186103820801,1.001805305480957,-0.8180075883865356,0.0
1238,0.012736320495605469,0.017453432083129883,1.010965347290039,0.09757804870605469,-0.4773592948913574,-0.03501319885253906,0.9889847636222839,-0.7216766476631165,0.0,2.249216079711914,-0.1909840852022171,2.2810111045837402,1.002197504043579,-0.8196840286254883,0.0
1243,0.014689445495605469,0.016476869583129883,1.015115737915039,0.1281123161315918,0.07225894927978516,0.22452878952026367,0.9298185110092163,-0.8289435505867004,0.0,2.24985671043396,-0.19062279164791107,2.2821338176727295,1.0023131370544434,-0.8193918466567993,0.0
1248,0.01664257049560547,0.020383119583129883,1.009500503540039,0.08231067657470703,-0.3399543762207031,-0.4319601058959961,1.1565614938735962,-0.9442971348762512,0.0,2.2502682209014893,-0.19232256710529327,2.2799739837646484,1.0038293600082397,-0.8219763040542603,0.0
1253,0.013957023620605469,0.017697572708129883,1.021219253540039,0.7387990951538086,-0.32468748092651367,-0.05028057098388672,0.992734968662262,-0.7828962802886963,0.0,2.253962278366089,-0.1939460039138794,2.2797226905822754,1.0074172019958496,-0.8233077526092529,0.0
1258,0.013224601745605469,0.019162416458129883,1.013895034790039,0.5097918510437012,-0.004076957702636719,0.423001766204834,1.0826579332351685,-0.7471538782119751,0.0,2.2565112113952637,-0.19396638870239258,2.2818377017974854,1.0104870796203613,-0.8227822780609131,0.0
1263,0.012980461120605469,0.015500307083129883,1.020486831665039,-0.039826393127441406,-0.019343852996826172,0.1787271499633789,0.8701357245445251,-0.7286716103553772,0.0,2.256312131881714,-0.19406311213970184,2.282731294631958,1.0092846155166626,-0.82220458984375,0.0
1268,0.013957023620605469,0.019406557083129883,1.009256362915039,0.1586465835571289,-0.04987812042236328,0.026055335998535156,1.1014748811721802,-0.7921473979949951,0.0,2.2571053504943848,-0.19431249797344208,2.2828614711761475,1.0107314586639404,-0.8222372531890869,0.0
1273,0.012492179870605469,0.015500307083129883,1.012186050415039,0.03650951385498047,0.20966386795043945,0.19399404525756836,0.8772746324539185,-0.7070132493972778,0.0,2.2572879791259766,-0.1932641714811325,2.2838313579559326,1.009959101676941,-0.8203731179237366,0.0
1278,0.015421867370605469,0.019650697708129883,1.011941909790039,-0.2077655792236328,-0.1414813995361328,0.10239124298095703,1.1123462915420532,-0.8729483485221863,0.0,2.256249189376831,-0.19397157430648804,2.2843432426452637,1.0096585750579834,-0.8214507699012756,0.0
1283,0.013468742370605469,0.019162416458129883,1.009256362915039,-0.16196393966674805,0.0569920539855957,0.10239124298095703,1.0876284837722778,-0.7644413113594055,0.0,2.255439281463623,-0.1936866194009781,2.2848551273345947,1.0094106197357178,-0.8207612633705139,0.0
1288,0.011271476745605469,0.014767885208129883,1.002420425415039,-0.009292125701904297,-0.12621402740478516,-0.27928829193115234,0.8439800143241882,-0.6441516280174255,0.0,2.2553927898406982,-0.19431768357753754,2.283458709716797,1.008185863494873,-0.8201295733451843,0.0
1294,0.013712882995605469,0.018429994583129883,1.007303237915039,-0.05509376525878906,-0.17201566696166992,-0.03501319885253906,1.0480908155441284,-0.779815137386322,0.0,2.2550623416900635,-0.195349782705307,2.2832486629486084,1.0081424713134766,-0.820866584777832,0.0
1299,0.009806632995605469,0.016476869583129883,1.017068862915039,0.23498249053955078,-0.26361894607543945,0.3466658592224121,0.9280872344970703,-0.552359402179718,0.0,2.256237268447876,-0.19666787981987,2.2849819660186768,1.0087381601333618,-0.8202606439590454,0.0
1304,0.012736320495605469,0.016232728958129883,1.013895034790039,-0.2535672187805176,-0.004076957702636719,0.1481928825378418,0.9171699285507202,-0.7196065783500671,0.0,2.254969358444214,-0.19668826460838318,2.2857229709625244,1.0068271160125732,-0.8195638060569763,0.0
1309,0.012980461120605469,0.016721010208129883,1.003641128540039,-0.1772313117980957,-0.37048912048339844,-0.01974630355834961,0.9543995261192322,-0.7408833503723145,0.0,2.2540831565856934,-0.19854071736335754,2.2856242656707764,1.005574107170105,-0.8208431005477905,0.0
1314,0.013957023620605469,0.014767885208129883,1.012186050415039,0.14337968826293945,0.13332796096801758,0.04132270812988281,0.8358117938041687,-0.7899168133735657,0.0,2.2548000812530518,-0.19787408411502838,2.2858309745788574,1.0050787925720215,-0.8199613094329834,0.0
1319,0.011027336120605469,0.016965150833129883,1.011941909790039,0.1586465835571289,-0.12621402740478516,0.40773487091064453,0.9604136347770691,-0.6242513060569763,0.0,2.2555932998657227,-0.19850514829158783,2.287869691848755,1.0055490732192993,-0.8191974759101868,0.0
1324,0.013712882995605469,0.018429994583129883,1.002176284790039,-0.039826393127441406,0.026457786560058594,0.08712387084960938,1.0534504652023315,-0.7838026881217957,0.0,2.255394220352173,-0.19837285578250885,2.2883052825927734,1.005691409111023,-0.8188149333000183,0.0
1329,0.01688671112060547,0.017209291458129883,1.009988784790039,0.18918085098266602,-0.29415321350097656,0.20926141738891602,0.9760372042655945,-0.957740068435669,0.0,2.2563400268554688,-0.1998436152935028,2.28935170173645,1.006420373916626,-0.8212605118751526,0.0
1334,0.012492179870605469,0.017941713333129883,1.010721206665039,-0.10089540481567383,-0.019343852996826172,0.13292551040649414,1.0168956518173218,-0.7080093026161194,0.0,2.25583553314209,-0.19994033873081207,2.2900164127349854,1.0059937238693237,-0.8205540776252747,0.0
1339,0.014201164245605469,0.017453432083129883,1.004129409790039,-0.039826393127441406,0.10279369354248047,0.22452878952026367,0.9956957101821899,-0.8101442456245422,0.0,2.25563645362854,-0.19942636787891388,2.2911391258239746,1.0057231187820435,-0.8199700713157654,0.0
1344,0.014933586120605469,0.018429994583129883,1.011209487915039,0.1281123161315918,-0.06514549255371094,-0.1571507453918457,1.0440258979797363,-0.8459445834159851,0.0,2.256277084350586,-0.1997520923614502,2.290353298187256,1.0066300630569458,-0.8204772472381592,0.0
1349,0.01786327362060547,0.016965150833129883,1.013406753540039,0.3265857696533203,0.31653404235839844,0.23979568481445312,0.9589336514472961,-1.0097039937973022,0.0,2.2579100131988525,-0.19816942512989044,2.2915523052215576,1.0079143047332764,-0.8202431797981262,0.0
1354,0.01639842987060547,0.018918275833129883,1.013162612915039,-0.009292125701904297,-0.06514549255371094,0.11765861511230469,1.0695909261703491,-0.9271118640899658,0.0,2.2578635215759277,-0.19849514961242676,2.292140483856201,1.0083037614822388,-0.8213213682174683,0.0
1359,0.013712882995605469,0.021603822708129883,1.006814956665039,0.3265857696533203,0.07225894927978516,0.2550630569458008,1.2291268110275269,-0.7801443338394165,0.0,2.2594964504241943,-0.19813385605812073,2.2934157848358154,1.0114834308624268,-0.8206720352172852,0.0
1364,0.012492179870605469,0.017697572708129883,1.004129409790039,-0.1772313117980957,0.0569920539855957,0.20926141738891602,1.0096435546875,-0.7126582860946655,0.0,2.258610248565674,-0.19784890115261078,2.294462203979492,1.0105905532836914,-0.8196274638175964,0.0
1369,0.012736320495605469,0.016965150833129883,1.010721206665039,-0.19249820709228516,-0.03461122512817383,0.19399404525756836,0.9615541100502014,-0.7218568325042725,0.0,2.257647752761841,-0.19802196323871613,2.2954320907592773,1.0092893838882446,-0.8191104531288147,0.0
1374,0.013957023620605469,0.016721010208129883,1.004861831665039,0.08231067657470703,-0.17201566696166992,0.20926141738891602,0.9532281160354614,-0.7956481575965881,0.0,2.25805926322937,-0.19888204336166382,2.296478509902954,1.009303331375122,-0.8197993040084839,0.0
1379,0.013712882995605469,0.016476869583129883,1.009988784790039,0.28078413009643555,-0.004076957702636719,0.10239124298095703,0.9345493316650391,-0.7777685523033142,0.0,2.25946307182312,-0.198902428150177,2.296990394592285,1.0101715326309204,-0.8195238709449768,0.0
1384,0.015177726745605469,0.018674135208129883,1.006326675415039,0.03650951385498047,-0.15674829483032227,-0.2640209197998047,1.0629795789718628,-0.8639382719993591,0.0,2.259645700454712,-0.1996861696243286,2.2956702709198,1.0107239484786987,-0.8206142783164978,0.0
1389,0.012248039245605469,0.018918275833129883,1.008523941040039,0.09757804870605469,-0.12621402740478516,0.30086469650268555,1.0745707750320435,-0.6956731677055359,0.0,2.2601335048675537,-0.20031723380088806,2.2971746921539307,1.0116568803787231,-0.8203633427619934,0.0
1394,0.012248039245605469,0.015012025833129883,1.006326675415039,-0.07036113739013672,0.13332796096801758,-0.1266164779663086,0.8545915484428406,-0.6972370743751526,0.0,2.2597815990448,-0.1996506005525589,2.296541690826416,1.0102051496505737,-0.8188372254371643,0.0
1399,0.012736320495605469,0.015256166458129883,1.007791519165039,-0.039826393127441406,-0.23308420181274414,0.04132270812988281,0.8672204613685608,-0.7239741086959839,0.0,2.25958251953125,-0.20081602036952972,2.296748399734497,1.0090045928955078,-0.8193291425704956,0.0
1404,0.01615428924560547,0.016721010208129883,1.009500503540039,0.5250587463378906,0.3012666702270508,-0.004478931427001953,0.9488188624382019,-0.9166579842567444,0.0,2.2622077465057373,-0.19930969178676605,2.2967259883880615,1.0111896991729736,-0.8185155391693115,0.0
1409,0.014689445495605469,0.016721010208129883,1.007303237915039,-0.039826393127441406,-0.26361894607543945,-0.004478931427001953,0.9509087800979614,-0.8353667855262756,0.0,2.2620086669921875,-0.20062778890132904,2.296703577041626,1.0105698108673096,-0.8199424147605896,0.0
1414,0.014445304870605469,0.018918275833129883,1.007303237915039,0.1586465835571289,-0.08041238784790039,0.5146050453186035,1.0758414268493652,-0.8214530944824219,0.0,2.2628018856048584,-0.20102985203266144,2.29927659034729,1.0118143558502197,-0.8203521966934204,0.0
1419,0.014445304870605469,0.015012025833129883,1.010232925415039,-0.36043739318847656,0.17912960052490234,0.08712387084960938,0.8512635827064514,-0.819125235080719,0.0,2.2609996795654297,-0.20013420283794403,2.2997121810913086,1.008901834487915,-0.8194542527198792,0.0
1424,0.012003898620605469,0.015744447708129883,1.005350112915039,0.23498249053955078,-0.18728303909301758,-0.1571507453918457,0.8971525430679321,-0.6839962601661682,0.0,2.262174606323242,-0.2010706216096878,2.29892635345459,1.0092874765396118,-0.8194373250007629,0.0
1429,0.013224601745605469,0.014767885208129883,1.012430191040039,-0.29936838150024414,-0.06514549255371094,0.16345977783203125,0.8356184363365173,-0.7482888102531433,0.0,2.2606778144836426,-0.20139634609222412,2.29974365234375,1.006588101387024,-0.8192638754844666,0.0
1434,0.013957023620605469,0.014279603958129883,1.009256362915039,0.05177640914916992,0.011190414428710938,0.04132270812988281,0.8105257153511047,-0.7922145128250122,0.0,2.260936737060547,-0.20134039223194122,2.299950361251831,1.005476713180542,-0.8190194964408875,0.0
1440,0.015177726745605469,0.018185853958129883,1.009500503540039,-0.4062385559082031,-0.309420108795166,-0.004478931427001953,1.0319383144378662,-0.8612309694290161,0.0,2.2589056491851807,-0.20288749039173126,2.2999279499053955,1.0036442279815674,-0.8208502531051636,0.0
1445,0.009074211120605469,0.014767885208129883,1.007791519165039,-0.039826393127441406,0.1943964958190918,0.11765861511230469,0.839501678943634,-0.515825092792511,0.0,2.258666753768921,-0.20172111690044403,2.3006339073181152,1.0022594928741455,-0.8175598382949829,0.0
1450,0.012492179870605469,0.015012025833129883,1.011941909790039,0.17391395568847656,0.13332796096801758,0.026055335998535156,0.8498483300209045,-0.7071889042854309,0.0,2.2595362663269043,-0.20105448365211487,2.3007640838623047,1.0020582675933838,-0.8161268830299377,0.0
1455,0.012736320495605469,0.015500307083129883,1.009012222290039,0.3723874092102051,0.10279369354248047,-0.06554794311523438,0.8800305724143982,-0.7230958938598633,0.0,2.2613983154296875,-0.20054051280021667,2.30043625831604,1.0030553340911865,-0.8149670362472534,0.0
1460,0.013712882995605469,0.016721010208129883,1.011209487915039,0.005974769592285156,-0.4468250274658203,0.10239124298095703,0.9472497701644897,-0.7768269777297974,0.0,2.261428117752075,-0.20277464389801025,2.300948143005371,1.0026956796646118,-0.8169195055961609,0.0
1465,0.010783195495605469,0.017209291458129883,1.006570816040039,0.34185266494750977,-0.06514549255371094,-0.1571507453918457,0.9794315099716187,-0.6136852502822876,0.0,2.2631373405456543,-0.20310036838054657,2.3001623153686523,1.0042307376861572,-0.8158260583877563,0.0
1470,0.011027336120605469,0.012082338333129883,1.011697769165039,-0.009292125701904297,-0.23308420181274414,-0.3556241989135742,0.68418949842453,-0.6244451403617859,0.0,2.2630908489227295,-0.2042657881975174,2.298384189605713,1.0019547939300537,-0.8156499862670898,0.0
1475,0.013224601745605469,0.016721010208129883,1.009256362915039,0.17391395568847656,-0.08041238784790039,-0.17241811752319336,0.9490883350372314,-0.750618577003479,0.0,2.263960361480713,-0.2046678513288498,2.2975220680236816,1.0024501085281372,-0.8155964016914368,0.0
1480,0.012736320495605469,0.016476869583129883,1.015115737915039,0.31131839752197266,0.0569920539855957,0.08712387084960938,0.9298426508903503,-0.7187387347221375,0.0,2.265516996383667,-0.20438289642333984,2.2979576587677,1.003490686416626,-0.8146393895149231,0.0
1485,0.014445304870605469,0.016232728958129883,1.013895034790039,0.021242141723632812,-0.06514549255371094,-0.1571507453918457,0.9171492457389832,-0.8161525130271912,0.0,2.265623092651367,-0.20470862090587616,2.2971718311309814,1.0029957294464111,-0.8149734139442444,0.0
1490,0.013224601745605469,0.017941713333129883,1.008035659790039,0.11284542083740234,0.08752632141113281,0.316131591796875,1.019594430923462,-0.7515115141868591,0.0,2.2661874294281006,-0.20427098870277405,2.298752546310425,1.003671407699585,-0.8140977621078491,0.0
1495,0.013224601745605469,0.017697572708129883,1.006814956665039,-0.32990312576293945,-0.019343852996826172,-0.03501319885253906,1.0069421529769897,-0.7524255514144897,0.0,2.264537811279297,-0.2043677121400833,2.2985775470733643,1.0020561218261719,-0.8137654662132263,0.0
1500,0.012736320495605469,0.017941713333129883,1.007059097290039,0.1281123161315918,0.07225894927978516,-0.11134910583496094,1.0205891132354736,-0.7244686484336853,0.0,2.2651784420013428,-0.20400641858577728,2.298020839691162,1.0028208494186401,-0.8127867579460144,0.0
1505,0.011515617370605469,0.022336244583129883,1.008035659790039,0.03650951385498047,0.1638622283935547,-0.34035682678222656,1.269280195236206,-0.6543475389480591,0.0,2.2653610706329346,-0.20318710803985596,2.296319007873535,1.0048507452011108,-0.8108738660812378,0.0
1510,0.012003898620605469,0.016232728958129883,1.006570816040039,0.09757804870605469,-0.29415321350097656,-0.1571507453918457,0.9238497018814087,-0.6831617951393127,0.0,2.2658488750457764,-0.20465786755084991,2.2955331802368164,1.0047736167907715,-0.811448872089386,0.0
1515,0.010539054870605469,0.018674135208129883,1.007791519165039,0.23498249053955078,-0.5536952018737793,0.07185697555541992,1.0614975690841675,-0.5990502238273621,0.0,2.267023801803589,-0.20742633938789368,2.2958924770355225,1.0063334703445435,-0.8127261996269226,0.0
1520,0.012003898620605469,0.018429994583129883,1.009012222290039,0.05177640914916992,-0.3399543762207031,0.0107879638671875,1.0463389158248901,-0.6814839243888855,0.0,2.267282724380493,-0.20912611484527588,2.2959463596343994,1.0068676471710205,-0.8135051727294922,0.0
1525,0.014689445495605469,0.020138978958129883,1.002420425415039,0.05177640914916992,-0.004076957702636719,-0.01974630355834961,1.1508140563964844,-0.8393815755844116,0.0,2.2675416469573975,-0.20914649963378906,2.2958476543426514,1.0081212520599365,-0.8137045502662659,0.0
1530,0.012980461120605469,0.017209291458129883,1.016824722290039,-0.23829984664916992,0.10279369354248047,0.10239124298095703,0.9695332050323486,-0.7312752604484558,0.0,2.266350030899048,-0.20863252878189087,2.2963595390319824,1.0066710710525513,-0.8126238584518433,0.0
1535,0.01688671112060547,0.016476869583129883,1.014871597290039,0.23498249053955078,-0.17201566696166992,-0.14188337326049805,0.9300107955932617,-0.9531457424163818,0.0,2.2675249576568604,-0.20949260890483856,2.295650005340576,1.007307767868042,-0.8144497275352478,0.0
1540,0.013712882995605469,0.020138978958129883,1.008035659790039,-0.08562803268432617,0.2249307632446289,0.056589603424072266,1.144422173500061,-0.7792235612869263,0.0,2.267096757888794,-0.2083679586648941,2.2959330081939697,1.007830262184143,-0.8130893707275391,0.0
1545,0.013224601745605469,0.018918275833129883,1.000711441040039,-0.1466965675354004,-0.18728303909301758,0.056589603424072266,1.0829432010650635,-0.7569958567619324,0.0,2.2663633823394775,-0.20930437743663788,2.2962160110473633,1.0076206922531128,-0.8136318325996399,0.0
1550,0.012248039245605469,0.019650697708129883,1.010965347290039,-0.039826393127441406,-0.17201566696166992,-0.09608221054077148,1.1134681701660156,-0.69398432970047,0.0,2.2661643028259277,-0.21016445755958557,2.2957355976104736,1.0081537961959839,-0.8136599063873291,0.0
1555,0.013468742370605469,0.017941713333129883,1.008523941040039,0.21971559524536133,-0.004076957702636719,-0.09608221054077148,1.0190976858139038,-0.7650132179260254,0.0,2.2672629356384277,-0.21018484234809875,2.295255184173584,1.0093203783035278,-0.8133444786071777,0.0
1560,0.015177726745605469,0.019894838333129883,1.004861831665039,0.21971559524536133,-0.12621402740478516,0.316131591796875,1.1340975761413574,-0.8651768565177917,0.0,2.2683615684509277,-0.2108159065246582,2.2968358993530273,1.0112720727920532,-0.8143287301063538,0.0
1565,0.013957023620605469,0.017697572708129883,1.005105972290039,0.1281123161315918,-0.32468748092651367,0.026055335998535156,1.008643627166748,-0.795441746711731,0.0,2.2690021991729736,-0.21243934333324432,2.296966075897217,1.0118900537490845,-0.8158107995986938,0.0
1570,0.011515617370605469,0.014523744583129883,1.002908706665039,0.18918085098266602,0.011190414428710938,-0.01974630355834961,0.8296231627464294,-0.6577848196029663,0.0,2.2699480056762695,-0.21238338947296143,2.2968673706054688,1.0115735530853271,-0.8146663308143616,0.0
1575,0.014689445495605469,0.018674135208129883,1.005105972290039,0.23498249053955078,-0.04987812042236328,0.13292551040649414,1.0642776489257812,-0.8371635675430298,0.0,2.271122932434082,-0.21263277530670166,2.297532081604004,1.0131033658981323,-0.8150689601898193,0.0
1580,0.012003898620605469,0.018918275833129883,1.011941909790039,0.1281123161315918,-0.26361894607543945,-0.1571507453918457,1.0709457397460938,-0.6795057058334351,0.0,2.271763563156128,-0.21395087242126465,2.296746253967285,1.014137625694275,-0.8154447674751282,0.0
1586,0.013224601745605469,0.016476869583129883,1.007791519165039,-0.39097166061401367,0.1638622283935547,0.316131591796875,0.9365922808647156,-0.7517121434211731,0.0,2.269808769226074,-0.21313156187534332,2.2983269691467285,1.0116626024246216,-0.8141925930976868,0.0
1591,0.01566600799560547,0.017697572708129883,1.005594253540039,-0.10089540481567383,0.04172468185424805,0.30086469650268555,1.0081288814544678,-0.8923923373222351,0.0,2.2692034244537354,-0.2128812074661255,2.3001322746276855,1.0110371112823486,-0.8144832849502563,0.0
1596,0.012003898620605469,0.015988588333129883,1.010721206665039,-0.13142967224121094,0.0569920539855957,-0.05028057098388672,0.906221866607666,-0.6803600788116455,0.0,2.2685463428497314,-0.21259625256061554,2.2998809814453125,1.0096619129180908,-0.8132757544517517,0.0
1601,0.014933586120605469,0.017209291458129883,1.016336441040039,0.11284542083740234,-0.3552217483520508,0.1481928825378418,0.9699732661247253,-0.8416969180107117,0.0,2.269110679626465,-0.21437236666679382,2.30062198638916,1.0099488496780396,-0.815235435962677,0.0
1606,0.014933586120605469,0.018429994583129883,1.017068862915039,0.34185266494750977,-0.26361894607543945,0.10239124298095703,1.0380138158798218,-0.8410733938217163,0.0,2.270819902420044,-0.2156904637813568,2.301133871078491,1.0118396282196045,-0.8167223930358887,0.0
1611,0.012492179870605469,0.018918275833129883,1.009500503540039,0.005974769592285156,-0.2483515739440918,-0.06554794311523438,1.073528528213501,-0.7088525891304016,0.0,2.2708497047424316,-0.21693222224712372,2.3008060455322266,1.0122939348220825,-0.8172130584716797,0.0
1616,0.014201164245605469,0.014035463333129883,1.008279800415039,0.3571200370788574,0.20966386795043945,0.13292551040649414,0.7974385023117065,-0.8068535923957825,0.0,2.2726352214813232,-0.21588389575481415,2.3014707565307617,1.0125890970230103,-0.8161006569862366,0.0
1621,0.010539054870605469,0.015988588333129883,1.007547378540039,-0.07036113739013672,-0.2483515739440918,-0.06554794311523438,0.9090903997421265,-0.5992227792739868,0.0,2.2722833156585693,-0.21712565422058105,2.301142930984497,1.0115280151367188,-0.8158423900604248,0.0
1626,0.011027336120605469,0.016232728958129883,1.009744644165039,-0.07036113739013672,-0.019343852996826172,0.30086469650268555,0.9209569096565247,-0.6256166696548462,0.0,2.2719314098358154,-0.21722237765789032,2.302647352218628,1.0105561017990112,-0.8146308660507202,0.0
1631,0.011027336120605469,0.015500307083129883,1.009744644165039,-0.11616230010986328,-0.23308420181274414,-0.27928829193115234,0.8794099688529968,-0.6256238222122192,0.0,2.271350622177124,-0.21838779747486115,2.30125093460083,1.0090782642364502,-0.8144897222518921,0.0
1636,0.010294914245605469,0.016476869583129883,1.009256362915039,-0.13142967224121094,-0.06514549255371094,0.20926141738891602,0.9352650046348572,-0.5843471884727478,0.0,2.27069354057312,-0.21871352195739746,2.302297353744507,1.0079185962677002,-0.8132326602935791,0.0
1641,0.013468742370605469,0.015256166458129883,1.012674331665039,-0.13142967224121094,-0.019343852996826172,-0.37089109420776367,0.8630321621894836,-0.7619123458862305,0.0,2.270036458969116,-0.21881024539470673,2.300442934036255,1.0062713623046875,-0.8129764199256897,0.0
1646,0.014689445495605469,0.017697572708129883,1.007303237915039,0.18918085098266602,-0.1414813995361328,0.316131591796875,1.0064339637756348,-0.8353529572486877,0.0,2.270982265472412,-0.21951764822006226,2.3020236492156982,1.0072119235992432,-0.8138325214385986,0.0
1651,0.011515617370605469,0.012814760208129883,1.012430191040039,0.21971559524536133,-0.20254993438720703,0.11765861511230469,0.7251314520835876,-0.6516152620315552,0.0,2.272080898284912,-0.22053039073944092,2.302611827850342,1.0063682794570923,-0.8137257099151611,0.0
1656,0.013957023620605469,0.013303041458129883,1.005105972290039,0.09757804870605469,-0.1109471321105957,0.40773487091064453,0.7582187056541443,-0.795495331287384,0.0,2.272568702697754,-0.22108513116836548,2.3046505451202393,1.005151629447937,-0.8141516447067261,0.0
1661,0.014933586120605469,0.016476869583129883,1.016336441040039,-0.08562803268432617,-0.04987812042236328,0.11765861511230469,0.9286988973617554,-0.8417069911956787,0.0,2.2721405029296875,-0.2213345170021057,2.305238723754883,1.0042026042938232,-0.814588189125061,0.0
1666,0.013957023620605469,0.019650697708129883,1.015359878540039,-0.2841014862060547,-0.06514549255371094,0.33139896392822266,1.1086268424987793,-0.7873843908309937,0.0,2.2707200050354004,-0.22166024148464203,2.3068957328796387,1.003507137298584,-0.8147253394126892,0.0
1671,0.012736320495605469,0.019894838333129883,1.013895034790039,0.05177640914916992,0.13332796096801758,-0.20295238494873047,1.1240355968475342,-0.7195602655410767,0.0,2.2709789276123047,-0.22099360823631287,2.3058810234069824,1.004589557647705,-0.8134116530418396,0.0
1676,0.01688671112060547,0.020871400833129883,1.007791519165039,0.09757804870605469,0.0569920539855957,0.11765861511230469,1.1862616539001465,-0.959761381149292,0.0,2.2714667320251465,-0.22070865333080292,2.306469202041626,1.0063176155090332,-0.8141303658485413,0.0
1681,0.014689445495605469,0.018429994583129883,1.012186050415039,-0.009292125701904297,-0.17201566696166992,-0.17241811752319336,1.0430227518081665,-0.8313142657279968,0.0,2.2714202404022217,-0.2215687334537506,2.3056070804595947,1.006522536277771,-0.8151021599769592,0.0
1686,0.010294914245605469,0.015256166458129883,1.010477066040039,0.41818857192993164,-0.04987812042236328,0.43826913833618164,0.8649401664733887,-0.5836525559425354,0.0,2.2735111713409424,-0.22181811928749084,2.307798385620117,1.0076308250427246,-0.8137668371200562,0.0
1691,0.013468742370605469,0.015744447708129883,1.011697769165039,0.03650951385498047,0.3012666702270508,0.1481928825378418,0.8915089964866638,-0.7626419067382812,0.0,2.273693799972534,-0.22031179070472717,2.308539390563965,1.0070182085037231,-0.8119212985038757,0.0
1696,0.011271476745605469,0.014035463333129883,1.012674331665039,-0.009292125701904297,-0.08041238784790039,0.04132270812988281,0.7940080165863037,-0.637637734413147,0.0,2.2736473083496094,-0.22071385383605957,2.308746099472046,1.0055162906646729,-0.8111295104026794,0.0
1701,0.01761913299560547,0.016965150833129883,1.013650894165039,-0.07036113739013672,0.0569920539855957,-0.21821928024291992,0.958706796169281,-0.9956672191619873,0.0,2.2732954025268555,-0.22042889893054962,2.307655096054077,1.0048471689224243,-0.8121072053909302,0.0
1706,0.014445304870605469,0.015744447708129883,1.005350112915039,0.25024986267089844,0.0569920539855957,0.4535360336303711,0.8971238732337952,-0.8230929374694824,0.0,2.2745466232299805,-0.22014394402503967,2.309922695159912,1.0053541660308838,-0.8118991851806641,0.0
1711,0.01664257049560547,0.017697572708129883,1.010232925415039,0.31131839752197266,-0.309420108795166,0.19399404525756836,1.0034863948822021,-0.9436601400375366,0.0,2.2761032581329346,-0.2216910421848297,2.3108925819396973,1.006887435913086,-0.8143352270126343,0.0
1716,0.011515617370605469,0.015500307083129883,1.011697769165039,0.06704378128051758,0.14859485626220703,-0.11134910583496094,0.8777079582214355,-0.652062714099884,0.0,2.2764384746551514,-0.22094807028770447,2.310335874557495,1.0063388347625732,-0.812489926815033,0.0
1721,0.011515617370605469,0.018674135208129883,1.006814956665039,-0.024559497833251953,-0.1414813995361328,-0.17241811752319336,1.0625154972076416,-0.6551889777183533,0.0,2.276315689086914,-0.22165547311306,2.309473752975464,1.0066001415252686,-0.8121194243431091,0.0
1726,0.010539054870605469,0.020383119583129883,1.011697769165039,0.005974769592285156,0.07225894927978516,-0.1571507453918457,1.154144525527954,-0.5967187285423279,0.0,2.2763454914093018,-0.22129417955875397,2.308687925338745,1.0076360702514648,-0.8102916479110718,0.0
1731,0.013224601745605469,0.015988588333129883,1.008279800415039,0.2960515022277832,-0.12621402740478516,0.10239124298095703,0.9084017276763916,-0.7513540983200073,0.0,2.2778258323669434,-0.22192524373531342,2.309199810028076,1.008429765701294,-0.8105166554450989,0.0
1737,0.014933586120605469,0.017453432083129883,1.011941909790039,0.11284542083740234,0.011190414428710938,-0.14188337326049805,0.9880014061927795,-0.8453471064567566,0.0,2.2783901691436768,-0.22186928987503052,2.30849027633667,1.0088509321212769,-0.8106984496116638,0.0
1742,0.014445304870605469,0.018674135208129883,1.006570816040039,0.09757804870605469,-0.019343852996826172,0.2855973243713379,1.0627332925796509,-0.8220542669296265,0.0,2.27897572517395,-0.2219853550195694,2.310203790664673,1.0098004341125488,-0.8108912706375122,0.0
1747,0.010294914245605469,0.012082338333129883,1.012674331665039,0.34185266494750977,-0.309420108795166,-0.09608221054077148,0.6835350394248962,-0.5824111700057983,0.0,2.2806849479675293,-0.22353245317935944,2.309723377227783,1.0092698335647583,-0.810867428779602,0.0
1752,0.011515617370605469,0.015500307083129883,1.006326675415039,0.38765430450439453,-0.03461122512817383,-0.24875402450561523,0.8823912143707275,-0.6555418372154236,0.0,2.282623291015625,-0.22370551526546478,2.3084795475006104,1.0103286504745483,-0.8099789023399353,0.0
1757,0.012980461120605469,0.019406557083129883,1.008768081665039,0.44872283935546875,-0.019343852996826172,-0.23348665237426758,1.1020220518112183,-0.7370842099189758,0.0,2.2848668098449707,-0.22380223870277405,2.30731201171875,1.0131827592849731,-0.8095775246620178,0.0
1762,0.012003898620605469,0.016965150833129883,1.009988784790039,0.09757804870605469,-0.1414813995361328,0.30086469650268555,0.9622597098350525,-0.6808425784111023,0.0,2.2853546142578125,-0.22450964152812958,2.308816432952881,1.013319969177246,-0.8094018697738647,0.0
1767,0.011759757995605469,0.017209291458129883,1.005350112915039,-0.22303247451782227,-0.1109471321105957,-0.05028057098388672,0.980609655380249,-0.6700701713562012,0.0,2.2842395305633545,-0.22506438195705414,2.308565139770508,1.0119893550872803,-0.8090026378631592,0.0
1772,0.012980461120605469,0.015988588333129883,1.009256362915039,-0.039826393127441406,0.026457786560058594,-0.1266164779663086,0.907525897026062,-0.7367715239524841,0.0,2.2840404510498047,-0.22493208944797516,2.307932138442993,1.0110794305801392,-0.8083788752555847,0.0
1777,0.011515617370605469,0.020138978958129883,1.007791519165039,0.11284542083740234,0.04172468185424805,-0.37089109420776367,1.1447304487228394,-0.6545360684394836,0.0,2.284604787826538,-0.2247234731912613,2.306077718734741,1.0125505924224854,-0.8071232438087463,0.0
1782,0.015177726745605469,0.019406557083129883,1.015604019165039,0.28078413009643555,-0.15674829483032227,0.20926141738891602,1.0945746898651123,-0.8560386300086975,0.0,2.286008596420288,-0.2255072146654129,2.307124137878418,1.0145037174224854,-0.8082348704338074,0.0
1787,0.012003898620605469,0.014523744583129883,1.012186050415039,0.09757804870605469,-0.019343852996826172,0.056589603424072266,0.8220165371894836,-0.6793906092643738,0.0,2.28649640083313,-0.22560393810272217,2.3074071407318115,1.0136774778366089,-0.807453453540802,0.0
1792,0.011271476745605469,0.016476869583129883,1.006326675415039,-0.07036113739013672,-0.17201566696166992,0.316131591796875,0.9379772543907166,-0.6416350603103638,0.0,2.286144495010376,-0.22646401822566986,2.308987855911255,1.0128127336502075,-0.807178795337677,0.0
1797,0.02103710174560547,0.019162416458129883,1.013162612915039,-0.19249820709228516,-0.12621402740478516,0.10239124298095703,1.083299160003662,-1.1892943382263184,0.0,2.285181999206543,-0.2270950824022293,2.309499740600586,1.0123364925384521,-0.8104062080383301,0.0
1802,0.01639842987060547,0.018674135208129883,1.011453628540039,-0.039826393127441406,-0.2178173065185547,-0.20295238494873047,1.0575740337371826,-0.9286816716194153,0.0,2.284982919692993,-0.22818416357040405,2.3084850311279297,1.0124465227127075,-0.8122926354408264,0.0
1807,0.012736320495605469,0.020138978958129883,1.007547378540039,0.31131839752197266,0.04172468185424805,0.16345977783203125,1.1449910402297974,-0.7240878939628601,0.0,2.2865395545959473,-0.22797554731369019,2.30930233001709,1.0148941278457642,-0.8114855289459229,0.0
1812,0.01566600799560547,0.017209291458129883,1.010232925415039,0.3571200370788574,-0.2483515739440918,0.026055335998535156,0.9758204221725464,-0.8883040547370911,0.0,2.288325071334839,-0.2292173057794571,2.3094325065612793,1.0164018869400024,-0.813241183757782,0.0
1817,0.011027336120605469,0.014767885208129883,1.006082534790039,0.2655167579650879,-0.26361894607543945,-0.1876850128173828,0.8409110307693481,-0.6279072165489197,0.0,2.2896525859832764,-0.23053540289402008,2.3084940910339355,1.0165276527404785,-0.813290536403656,0.0
1822,0.010783195495605469,0.016721010208129883,1.014139175415039,-0.23829984664916992,-0.15674829483032227,0.22452878952026367,0.9445472359657288,-0.609112024307251,0.0,2.2884609699249268,-0.2313191443681717,2.309616804122925,1.014855146408081,-0.8126814961433411,0.0
1827,0.013224601745605469,0.017209291458129883,1.010721206665039,-0.11616230010986328,-0.46209192276000977,0.08712387084960938,0.9753828644752502,-0.7495250105857849,0.0,2.2878801822662354,-0.23362959921360016,2.3100523948669434,1.0140101909637451,-0.8145471811294556,0.0
1832,0.011515617370605469,0.020138978958129883,1.007547378540039,0.021242141723632812,-0.1109471321105957,0.316131591796875,1.1450077295303345,-0.6546945571899414,0.0,2.2879862785339355,-0.23418433964252472,2.3116331100463867,1.015005350112915,-0.8140125274658203,0.0
1837,0.012736320495605469,0.016965150833129883,1.015115737915039,-0.10089540481567383,-0.06514549255371094,0.0107879638671875,0.9573928713798523,-0.7187330722808838,0.0,2.2874817848205566,-0.23451006412506104,2.3116869926452637,1.0141130685806274,-0.8136891722679138,0.0
1842,0.012492179870605469,0.018918275833129883,1.010477066040039,-0.039826393127441406,0.1638622283935547,-0.24875402450561523,1.0724914073944092,-0.7081677913665771,0.0,2.287282705307007,-0.2336907535791397,2.310443162918091,1.0143115520477295,-0.8121591806411743,0.0
1847,0.008097648620605469,0.016965150833129883,1.010965347290039,0.06704378128051758,0.026457786560058594,-0.3250899314880371,0.9613674283027649,-0.4588543474674225,0.0,2.2876179218292236,-0.23355846107006073,2.3088176250457764,1.0142852067947388,-0.8096304535865784,0.0
1852,0.008830070495605469,0.017453432083129883,1.008035659790039,-0.2841014862060547,-0.04987812042236328,-0.21821928024291992,0.9918991923332214,-0.5018047094345093,0.0,2.2861974239349365,-0.23380784690380096,2.3077266216278076,1.0127224922180176,-0.8077899813652039,0.0
1857,0.012980461120605469,0.016232728958129883,1.010965347290039,0.005974769592285156,-0.004076957702636719,0.3772001266479492,0.9198241233825684,-0.7355236411094666,0.0,2.286227226257324,-0.23382823169231415,2.309612512588501,1.0121221542358398,-0.8073201179504395,0.0
1862,0.015177726745605469,0.015744447708129883,1.006814956665039,-0.10089540481567383,-0.29415321350097656,-0.05028057098388672,0.895809531211853,-0.8635624051094055,0.0,2.2857227325439453,-0.2352989912033081,2.309361219406128,1.01083242893219,-0.8091621994972229,0.0
1867,0.012492179870605469,0.018674135208129883,1.013406753540039,0.34185266494750977,-0.416290283203125,0.5604066848754883,1.0555946826934814,-0.7061246037483215,0.0,2.2874319553375244,-0.23738044500350952,2.3121633529663086,1.0128334760665894,-0.8105311393737793,0.0
1872,0.009074211120605469,0.017209291458129883,1.010232925415039,0.1281123161315918,-0.06514549255371094,0.10239124298095703,0.9758983254432678,-0.5145591497421265,0.0,2.2880725860595703,-0.23770616948604584,2.3126752376556396,1.0132193565368652,-0.808849036693573,0.0
1877,0.012492179870605469,0.014767885208129883,1.007303237915039,0.20444822311401367,-0.23308420181274414,0.27032995223999023,0.8398780226707458,-0.7104470133781433,0.0,2.289094924926758,-0.23887158930301666,2.3140268325805664,1.0130603313446045,-0.8093399405479431,0.0
1883,0.014201164245605469,0.017941713333129883,1.008523941040039,0.14337968826293945,-0.019343852996826172,-0.20295238494873047,1.019087553024292,-0.8066087961196899,0.0,2.289811849594116,-0.23896831274032593,2.31301212310791,1.0138132572174072,-0.8094175457954407,0.0
1888,0.012492179870605469,0.016476869583129883,1.006326675415039,0.08231067657470703,-0.06514549255371094,0.056589603424072266,0.9379638433456421,-0.7111175060272217,0.0,2.2903056144714355,-0.23935918509960175,2.313351631164551,1.0137887001037598,-0.809138298034668,0.0
1893,0.012003898620605469,0.019406557083129883,1.009988784790039,0.21971559524536133,0.24019813537597656,-0.27928829193115234,1.1007038354873657,-0.6808129549026489,0.0,2.2914042472839355,-0.2381581962108612,2.311955213546753,1.0154699087142944,-0.8070743680000305,0.0
1898,0.008097648620605469,0.016476869583129883,1.010721206665039,-0.009292125701904297,-0.17201566696166992,-0.01974630355834961,0.933928370475769,-0.4589688181877136,0.0,2.2913577556610107,-0.2390182763338089,2.311856508255005,1.0148704051971436,-0.8055661916732788,0.0
1903,0.010539054870605469,0.017209291458129883,1.008523941040039,0.21971559524536133,0.14859485626220703,0.11765861511230469,0.9775378108024597,-0.5986307859420776,0.0,2.2924563884735107,-0.23827530443668365,2.3124446868896484,1.015708327293396,-0.8034242987632751,0.0
1908,0.012736320495605469,0.015988588333129883,1.006570816040039,0.20444822311401367,0.1943964958190918,-0.05028057098388672,0.9099491834640503,-0.7248436212539673,0.0,2.2934787273406982,-0.23730331659317017,2.3121933937072754,1.0160062313079834,-0.8019258975982666,0.0
1913,0.011271476745605469,0.012570619583129883,1.002420425415039,0.03650951385498047,-0.2788858413696289,0.16345977783203125,0.7184212803840637,-0.644170880317688,0.0,2.29366135597229,-0.23869775235652924,2.3130106925964355,1.0141695737838745,-0.8022411465644836,0.0
1918,0.01810741424560547,0.018429994583129883,1.012918472290039,0.38765430450439453,0.07225894927978516,0.08712387084960938,1.0422120094299316,-1.02396821975708,0.0,2.2955996990203857,-0.2383364588022232,2.313446283340454,1.016284704208374,-0.8033853769302368,0.0
1923,0.012736320495605469,0.016965150833129883,1.012430191040039,0.05177640914916992,-0.1109471321105957,0.27032995223999023,0.9599315524101257,-0.7206388115882874,0.0,2.29585862159729,-0.23889119923114777,2.314797878265381,1.0161598920822144,-0.8033755421638489,0.0
1928,0.013468742370605469,0.014523744583129883,1.013895034790039,0.05177640914916992,-0.20254993438720703,0.23979568481445312,0.8206164836883545,-0.7610033750534058,0.0,2.2961175441741943,-0.23990394175052643,2.3159968852996826,1.015092134475708,-0.8040943145751953,0.0
1933,0.014201164245605469,0.017453432083129883,1.006814956665039,0.1586465835571289,0.011190414428710938,0.20926141738891602,0.9930408596992493,-0.8079842329025269,0.0,2.2969107627868652,-0.23984798789024353,2.3170433044433594,1.015730619430542,-0.8040650486946106,0.0
1938,0.013957023620605469,0.017941713333129883,1.003396987915039,-0.07036113739013672,-0.1414813995361328,0.22452878952026367,1.0242960453033447,-0.7967925071716309,0.0,2.2965588569641113,-0.24055539071559906,2.3181660175323486,1.0154392719268799,-0.8047183752059937,0.0
1943,0.01664257049560547,0.018429994583129883,1.008768081665039,0.2655167579650879,-0.43155765533447266,0.026055335998535156,1.0465238094329834,-0.9450175166130066,0.0,2.297886371612549,-0.24271318316459656,2.318296194076538,1.0169683694839478,-0.807811439037323,0.0
1948,0.014933586120605469,0.018918275833129883,1.008279800415039,-0.19249820709228516,-0.1109471321105957,0.056589603424072266,1.0747922658920288,-0.8483938574790955,0.0,2.296923875808716,-0.24326792359352112,2.3185791969299316,1.0164037942886353,-0.8086371421813965,0.0
1953,0.012003898620605469,0.020871400833129883,1.012918472290039,0.06704378128051758,-0.3399543762207031,0.23979568481445312,1.1803418397903442,-0.6788251996040344,0.0,2.2972590923309326,-0.24496769905090332,2.3197782039642334,1.0178461074829102,-0.8094469308853149,0.0
1958,0.01615428924560547,0.016721010208129883,1.002176284790039,-0.10089540481567383,0.04172468185424805,0.30086469650268555,0.955750048160553,-0.9233542084693909,0.0,2.2967545986175537,-0.24475908279418945,2.3212826251983643,1.0169249773025513,-0.8100103735923767,0.0
1963,0.014201164245605469,0.015744447708129883,1.013895034790039,-0.13142967224121094,-0.1109471321105957,-0.38615846633911133,0.8895688652992249,-0.8023666143417358,0.0,2.29609751701355,-0.245313823223114,2.3193519115448,1.0154107809066772,-0.8105096817016602,0.0
1968,0.012736320495605469,0.018674135208129883,1.003885269165039,0.23498249053955078,-0.1109471321105957,0.04132270812988281,1.0655995607376099,-0.7267484664916992,0.0,2.2972724437713623,-0.24586856365203857,2.319558620452881,1.016917109489441,-0.8104942440986633,0.0
1973,0.013468742370605469,0.016965150833129883,1.009988784790039,0.18918085098266602,-0.29415321350097656,0.07185697555541992,0.9622421264648438,-0.7639169096946716,0.0,2.298218250274658,-0.24733932316303253,2.319917917251587,1.0174870491027832,-0.8116401433944702,0.0
1978,0.015177726745605469,0.015744447708129883,1.006326675415039,-0.039826393127441406,-0.2178173065185547,0.22452878952026367,0.8962439894676208,-0.8639812469482422,0.0,2.2980191707611084,-0.24842840433120728,2.321040630340576,1.0164698362350464,-0.8130756616592407,0.0
1983,0.013468742370605469,0.016232728958129883,1.007791519165039,-0.10089540481567383,0.0569920539855957,0.20926141738891602,0.9227140545845032,-0.7655909657478333,0.0,2.2975146770477295,-0.24814344942569733,2.322087049484253,1.015335202217102,-0.8124717473983765,0.0
1988,0.013468742370605469,0.018918275833129883,1.006326675415039,-0.22303247451782227,0.10279369354248047,0.026055335998535156,1.0768994092941284,-0.7666692733764648,0.0,2.2963995933532715,-0.24762947857379913,2.3222172260284424,1.0146434307098389,-0.8116518259048462,0.0
1993,0.012492179870605469,0.012814760208129883,1.008279800415039,-0.039826393127441406,0.3623356819152832,-0.06554794311523438,0.728107213973999,-0.7097779512405396,0.0,2.2962005138397217,-0.24581779539585114,2.3218894004821777,1.0125102996826172,-0.80916428565979,0.0
1998,0.012248039245605469,0.019406557083129883,1.009988784790039,-0.26883411407470703,-0.17201566696166992,0.056589603424072266,1.1007006168365479,-0.6946582794189453,0.0,2.294856309890747,-0.24667787551879883,2.3221724033355713,1.0117707252502441,-0.8092452883720398,0.0
2003,0.013224601745605469,0.017697572708129883,1.008523941040039,-0.009292125701904297,-0.09567975997924805,0.1481928825378418,1.0052365064620972,-0.7511510848999023,0.0,2.2948098182678223,-0.2471562772989273,2.322913408279419,1.0116804838180542,-0.8093281984329224,0.0
2008,0.013957023620605469,0.015500307083129883,1.012430191040039,-0.2841014862060547,0.14859485626220703,-0.23348665237426758,0.8770465850830078,-0.7897178530693054,0.0,2.293389320373535,-0.24641330540180206,2.3217458724975586,1.0093607902526855,-0.8084578514099121,0.0
2013,0.01737499237060547,0.016476869583129883,1.011453628540039,0.3265857696533203,-0.2483515739440918,0.11765861511230469,0.9331444501876831,-0.9840132594108582,0.0,2.2950222492218018,-0.24765506386756897,2.322334051132202,1.0104683637619019,-0.8108760118484497,0.0
2018,0.013468742370605469,0.017453432083129883,1.009012222290039,0.005974769592285156,0.04172468185424805,0.3772001266479492,0.9908891320228577,-0.7646496891975403,0.0,2.2950520515441895,-0.2474464476108551,2.3242199420928955,1.0103659629821777,-0.8103569149971008,0.0
2023,0.013712882995605469,0.019894838333129883,1.015115737915039,0.4334559440612793,-0.2483515739440918,-0.09608221054077148,1.1226704120635986,-0.7737952470779419,0.0,2.2972192764282227,-0.248688206076622,2.323739528656006,1.013276219367981,-0.8113436102867126,0.0
2028,0.01713085174560547,0.015744447708129883,1.003396987915039,-0.1772313117980957,-0.2178173065185547,0.33139896392822266,0.8988316655158997,-0.9779871702194214,0.0,2.296333074569702,-0.24977728724479675,2.3253965377807617,1.0116240978240967,-0.813549280166626,0.0
2034,0.013224601745605469,0.015988588333129883,1.006326675415039,-0.05509376525878906,0.2249307632446289,-0.21821928024291992,0.9101641774177551,-0.752811849117279,0.0,2.2960026264190674,-0.24842770397663116,2.324087142944336,1.0106096267700195,-0.811798095703125,0.0
2039,0.014933586120605469,0.014767885208129883,1.009012222290039,0.21971559524536133,0.04172468185424805,0.20926141738891602,0.8384283185005188,-0.8478364944458008,0.0,2.2971012592315674,-0.2482190877199173,2.3251335620880127,1.0105366706848145,-0.8118345737457275,0.0
2044,0.01615428924560547,0.017941713333129883,1.015604019165039,0.14337968826293945,0.17912960052490234,0.2855973243713379,1.0119569301605225,-0.9111328721046448,0.0,2.297818183898926,-0.2473234385251999,2.326561450958252,1.0112583637237549,-0.8116161823272705,0.0
2049,0.012492179870605469,0.014035463333129883,1.004373550415039,0.1586465835571289,0.3318009376525879,-0.01974630355834961,0.800557017326355,-0.7125261425971985,0.0,2.2986114025115967,-0.24566443264484406,2.326462745666504,1.0106223821640015,-0.8092987537384033,0.0
2054,0.01786327362060547,0.018674135208129883,1.013895034790039,-0.10089540481567383,0.13332796096801758,0.0107879638671875,1.0550029277801514,-1.0091880559921265,0.0,2.2981069087982178,-0.2449977993965149,2.326516628265381,1.0104211568832397,-0.8099871873855591,0.0
2059,0.012736320495605469,0.016965150833129883,1.006814956665039,-0.19249820709228516,-0.09567975997924805,0.20926141738891602,0.9652834534645081,-0.7246564030647278,0.0,2.2971444129943848,-0.24547620117664337,2.3275630474090576,1.0091602802276611,-0.8098859190940857,0.0
2064,0.013957023620605469,0.016721010208129883,1.009500503540039,-0.13142967224121094,0.08752632141113281,0.16345977783203125,0.948849618434906,-0.7919936180114746,0.0,2.296487331390381,-0.24503856897354126,2.3283803462982178,1.0081002712249756,-0.809330403804779,0.0
2069,0.012736320495605469,0.018429994583129883,1.012430191040039,-0.10089540481567383,-0.17201566696166992,-0.03501319885253906,1.042798638343811,-0.7206206321716309,0.0,2.295982837677002,-0.24589864909648895,2.3282053470611572,1.007833480834961,-0.8095857501029968,0.0
2074,0.011515617370605469,0.017941713333129883,1.009988784790039,-0.05509376525878906,-0.019343852996826172,0.07185697555541992,1.0176445245742798,-0.6531395316123962,0.0,2.2957074642181396,-0.24599537253379822,2.3285646438598633,1.0076260566711426,-0.8086257576942444,0.0
2079,0.012248039245605469,0.013058900833129883,1.005105972290039,0.6624631881713867,-0.2788858413696289,0.19399404525756836,0.7443217635154724,-0.6981025338172913,0.0,2.2990198135375977,-0.2473898082971573,2.3295345306396484,1.0091389417648315,-0.8092648386955261,0.0
2084,0.01737499237060547,0.018918275833129883,1.012430191040039,-0.024559497833251953,-0.08041238784790039,-0.17241811752319336,1.0703470706939697,-0.9830231666564941,0.0,2.2988970279693604,-0.24779187142848969,2.328672409057617,1.0094300508499146,-0.8108366131782532,0.0
2089,0.013224601745605469,0.020627260208129883,1.008035659790039,0.25024986267089844,0.17912960052490234,-0.27928829193115234,1.1721692085266113,-0.7514732480049133,0.0,2.3001482486724854,-0.24689622223377228,2.3272759914398193,1.0117707252502441,-0.8095465302467346,0.0
2094,0.012003898620605469,0.017209291458129883,1.010965347290039,0.34185266494750977,-0.2483515739440918,0.23979568481445312,0.9751620888710022,-0.6801823377609253,0.0,2.3018574714660645,-0.24813798069953918,2.328474998474121,1.0132215023040771,-0.8099073171615601,0.0
2099,0.013224601745605469,0.016965150833129883,1.009256362915039,-0.07036113739013672,-0.26361894607543945,0.1481928825378418,0.9629432559013367,-0.7506155371665955,0.0,2.3015055656433105,-0.24945607781410217,2.3292160034179688,1.0125330686569214,-0.8108167052268982,0.0
2104,0.012736320495605469,0.019650697708129883,1.009744644165039,0.25024986267089844,0.20966386795043945,-0.38615846633911133,1.1148070096969604,-0.7225198745727539,0.0,2.3027567863464355,-0.2484077513217926,2.3272852897644043,1.0144654512405396,-0.8091801404953003,0.0
2109,0.012980461120605469,0.018185853958129883,1.004861831665039,0.3265857696533203,-0.08041238784790039,-0.21821928024291992,1.0367316007614136,-0.7399649620056152,0.0,2.304389715194702,-0.248809814453125,2.3261942863464355,1.016237497329712,-0.8091129064559937,0.0
2114,0.014445304870605469,0.016232728958129883,1.010232925415039,-0.16196393966674805,-0.1109471321105957,-0.24875402450561523,0.9204726815223694,-0.8191099166870117,0.0,2.303579807281494,-0.24936455488204956,2.3249504566192627,1.0147877931594849,-0.8097313046455383,0.0
2119,0.011271476745605469,0.016476869583129883,1.001443862915039,0.005974769592285156,-0.26361894607543945,0.49933767318725586,0.9425492286682129,-0.6447624564170837,0.0,2.303609609603882,-0.25068265199661255,2.3274471759796143,1.0143307447433472,-0.8099288940429688,0.0
2124,0.013712882995605469,0.017453432083129883,1.009744644165039,0.03650951385498047,-0.3399543762207031,0.026055335998535156,0.9901674389839172,-0.7779439091682434,0.0,2.3037922382354736,-0.25238242745399475,2.3275773525238037,1.0143492221832275,-0.8114017248153687,0.0
2129,0.014445304870605469,0.015744447708129883,1.007791519165039,0.31131839752197266,-0.3552217483520508,-0.01974630355834961,0.894951343536377,-0.8210997581481934,0.0,2.3053488731384277,-0.25415852665901184,2.3274786472320557,1.015091061592102,-0.8132311701774597,0.0
2134,0.011515617370605469,0.014035463333129883,1.011453628540039,0.05177640914916992,-0.3552217483520508,-0.24875402450561523,0.7949638962745667,-0.6522338390350342,0.0,2.305607795715332,-0.25593462586402893,2.326234817504883,1.0138657093048096,-0.8139110207557678,0.0
2139,0.010539054870605469,0.014767885208129883,1.011453628540039,-0.024559497833251953,-0.3552217483520508,0.13292551040649414,0.8364510536193848,-0.5969202518463135,0.0,2.3054850101470947,-0.257710725069046,2.326899528503418,1.0125491619110107,-0.8142140507698059,0.0
2144,0.009562492370605469,0.014767885208129883,1.012674331665039,-0.482574462890625,-0.004076957702636719,-0.03501319885253906,0.8354510068893433,-0.5409595966339111,0.0,2.303072214126587,-0.2577311098575592,2.3267245292663574,1.008960247039795,-0.8123946785926819,0.0
2149,0.013468742370605469,0.018918275833129883,1.011697769165039,-0.10089540481567383,-0.18728303909301758,0.23979568481445312,1.071184515953064,-0.7626008987426758,0.0,2.302567720413208,-0.258667528629303,2.327923536300659,1.0088779926300049,-0.8129895925521851,0.0
2154,0.012736320495605469,0.015012025833129883,1.009500503540039,-0.05509376525878906,-0.004076957702636719,0.2855973243713379,0.8519003987312317,-0.7227515578269958,0.0,2.3022923469543457,-0.25868791341781616,2.3293514251708984,1.0075478553771973,-0.8124025464057922,0.0
2159,0.014445304870605469,0.016965150833129883,1.007791519165039,0.021242141723632812,-0.15674829483032227,0.23979568481445312,0.9643263816833496,-0.8210836052894592,0.0,2.302398443222046,-0.2594716548919678,2.3305504322052,1.0073624849319458,-0.8132394552230835,0.0
2164,0.015421867370605469,0.017697572708129883,1.010232925415039,0.08231067657470703,0.011190414428710938,-0.03501319885253906,1.0035055875778198,-0.8744555115699768,0.0,2.302809953689575,-0.25941571593284607,2.3303754329681396,1.0077452659606934,-0.813595712184906,0.0
2169,0.013468742370605469,0.016965150833129883,1.001688003540039,0.25024986267089844,0.08752632141113281,-0.27928829193115234,0.9702130556106567,-0.7702447772026062,0.0,2.3040611743927,-0.25897809863090515,2.328979015350342,1.0087356567382812,-0.8128694295883179,0.0
2174,0.014445304870605469,0.020138978958129883,1.010477066040039,-0.11616230010986328,0.5455417633056641,-0.06554794311523438,1.1416468620300293,-0.8188551068305969,0.0,2.303480386734009,-0.25625038146972656,2.328651189804077,1.0090526342391968,-0.8102003335952759,0.0
2180,0.012248039245605469,0.020138978958129883,1.007303237915039,0.021242141723632812,-0.004076957702636719,0.23979568481445312,1.145275354385376,-0.6964994668960571,0.0,2.303586483001709,-0.25627076625823975,2.329850196838379,1.0100741386413574,-0.8094559907913208,0.0
2185,0.013957023620605469,0.018185853958129883,1.006570816040039,0.1281123161315918,-0.17201566696166992,0.33139896392822266,1.0349587202072144,-0.7942777872085571,0.0,2.3043551445007324,-0.257302850484848,2.331838607788086,1.0110054016113281,-0.8103787899017334,0.0
2190,0.013957023620605469,0.019894838333129883,1.000711441040039,0.1586465835571289,0.04172468185424805,0.056589603424072266,1.1388190984725952,-0.7989003658294678,0.0,2.3051483631134033,-0.25709423422813416,2.3321216106414795,1.0126549005508423,-0.8100941777229309,0.0
2195,0.009074211120605469,0.013303041458129883,1.009744644165039,0.05177640914916992,-0.15674829483032227,0.19399404525756836,0.7547782063484192,-0.5148379802703857,0.0,2.3054072856903076,-0.25787797570228577,2.3330914974212646,1.011173963546753,-0.8088825941085815,0.0
2200,0.010539054870605469,0.017453432083129883,1.008523941040039,-0.08562803268432617,-0.1109471321105957,-0.03501319885253906,0.9914029240608215,-0.5986283421516418,0.0,2.304979085922241,-0.2584327161312103,2.332916498184204,1.010615587234497,-0.8080167174339294,0.0
2205,0.012736320495605469,0.017697572708129883,1.005350112915039,-0.08562803268432617,0.026457786560058594,0.10239124298095703,1.0084149837493896,-0.7257027626037598,0.0,2.304550886154175,-0.25830042362213135,2.333428382873535,1.0101755857467651,-0.8073307275772095,0.0
2210,0.013957023620605469,0.016721010208129883,1.012674331665039,-0.1466965675354004,-0.416290283203125,-0.2640209197998047,0.945876955986023,-0.7895123958587646,0.0,2.3038175106048584,-0.26038187742233276,2.33210825920105,1.0090138912200928,-0.809278130531311,0.0
2215,0.015421867370605469,0.016965150833129883,1.007791519165039,0.20444822311401367,-0.03461122512817383,0.11765861511230469,0.9643124938011169,-0.8765838742256165,0.0,2.304839849472046,-0.2605549395084381,2.3326964378356934,1.009728193283081,-0.8099033236503601,0.0
2220,0.010783195495605469,0.016232728958129883,1.008523941040039,-0.22303247451782227,-0.3552217483520508,-0.03501319885253906,0.9220737218856812,-0.6125070452690125,0.0,2.303724765777588,-0.2623310387134552,2.332521438598633,1.0080302953720093,-0.8103381991386414,0.0
2225,0.015177726745605469,0.015500307083129883,1.008768081665039,0.11284542083740234,-0.09567975997924805,-0.1876850128173828,0.8802140355110168,-0.8618943095207214,0.0,2.3042891025543213,-0.2628094255924225,2.331583023071289,1.0077301263809204,-0.8111605048179626,0.0
2230,0.013224601745605469,0.017209291458129883,1.009012222290039,0.11284542083740234,0.17912960052490234,0.04132270812988281,0.9770342707633972,-0.750793993473053,0.0,2.3048534393310547,-0.2619137763977051,2.33178973197937,1.0080839395523071,-0.8098645806312561,0.0
2235,0.014689445495605469,0.015988588333129883,1.010477066040039,-0.039826393127441406,0.4692058563232422,0.30086469650268555,0.9064089059829712,-0.8327538371086121,0.0,2.304654359817505,-0.2595677375793457,2.333294153213501,1.007201910018921,-0.8076883554458618,0.0
2240,0.013468742370605469,0.015988588333129883,1.003885269165039,-0.009292125701904297,0.37760257720947266,-0.1266164779663086,0.912373960018158,-0.7685718536376953,0.0,2.30460786819458,-0.2576797306537628,2.3326611518859863,1.0065176486968994,-0.8055498003959656,0.0
