Time,Acc_low_X,Acc_low_Y,Acc_low_Z,Gyro_low_X,Gyro_low_Y,Gyro_low_Z,Acc_X,Acc_Y,Acc_Z,Gyro_X,Gyro_Y,Gyro_Z,Euler_X,Euler_Y,Euler_Z
0,-0.009724617004394531,-0.9981715679168701,0.014383316040039062,-0.6810479164123535,-0.1109471321105957,0.423001766204834,-89.00349426269531,0.5581245422363281,0.0,-6.673588275909424,-1.087170958518982,4.144994258880615,-88.52400207519531,0.548542320728302,0.0
5,-0.010212898254394531,-0.9976832866668701,0.016580581665039062,-0.07036113739013672,-0.17201566696166992,0.23979568481445312,-88.88179779052734,0.5864133238792419,0.0,-6.673940181732178,-1.0880310535430908,4.146193027496338,-88.70256042480469,0.5669916868209839,0.0
10,-0.011433601379394531,-0.9979274272918701,0.012674331665039062,-0.32990312576293945,-0.04987812042236328,0.46880340576171875,-89.02005767822266,0.6563760042190552,0.0,-6.675589561462402,-1.088280439376831,4.1485371589660645,-88.80929565429688,0.5965642333030701,0.0
15,-0.011433601379394531,-0.9974391460418701,0.010477066040039062,-0.19249820709228516,0.08752632141113281,0.5604066848754883,-89.1092529296875,0.6567140221595764,0.0,-6.676551818847656,-1.0878428220748901,4.151339054107666,-88.8849105834961,0.6119104027748108,0.0
20,-0.009968757629394531,-0.9984157085418701,0.013406753540039062,-0.22303247451782227,0.14859485626220703,0.1787271499633789,-89.04134368896484,0.5720034837722778,0.0,-6.677667140960693,-1.0870997905731201,4.152232646942139,-88.91706085205078,0.6045307517051697,0.0
25,-0.010945320129394531,-0.9928004741668701,0.0068149566650390625,-0.3146357536315918,-0.2178173065185547,0.22452878952026367,-89.25593566894531,0.6316279172897339,0.0,-6.6792402267456055,-1.088188886642456,4.153355121612549,-88.97481536865234,0.6081367135047913,0.0
30,-0.014607429504394531,-0.9908473491668701,0.009012222290039062,-0.32990312576293945,-0.1109471321105957,0.5451393127441406,-89.00759887695312,0.8445789813995361,0.0,-6.68088960647583,-1.0887435674667358,4.156080722808838,-88.98091125488281,0.6414299607276917,0.0
35,-0.013142585754394531,-0.9910914897918701,0.009744644165039062,-0.19249820709228516,-0.5384278297424316,0.636742115020752,-89.05423736572266,0.7597019672393799,0.0,-6.681851863861084,-1.0914356708526611,4.15926456451416,-88.99092102050781,0.65385901927948,0.0
40,-0.012166023254394531,-0.9903590679168701,0.019998550415039062,-0.26883411407470703,-0.15674829483032227,0.3772001266479492,-88.64598846435547,0.7036687135696411,0.0,-6.683196067810059,-1.092219352722168,4.1611504554748535,-88.95377349853516,0.6586987972259521,0.0
45,-0.01607227325439453,-0.9959743022918701,0.009744644165039062,-0.2535672187805176,0.08752632141113281,0.22452878952026367,-88.91886138916016,0.9244710803031921,0.0,-6.684463977813721,-1.091781735420227,4.162272930145264,-88.951416015625,0.6856879591941833,0.0
50,-0.015339851379394531,-0.9967067241668701,0.009012222290039062,-0.4062385559082031,0.0569920539855957,0.636742115020752,-88.97737121582031,0.8817071318626404,0.0,-6.686495304107666,-1.0914968252182007,4.165456771850586,-88.95561981201172,0.7037851810455322,0.0
55,-0.013142585754394531,-0.9974391460418701,0.013650894165039062,-0.39097166061401367,-0.15674829483032227,0.30086469650268555,-88.91162872314453,0.7548336386680603,0.0,-6.688450336456299,-1.0922805070877075,4.166961193084717,-88.9537353515625,0.7073267698287964,0.0
60,-0.013875007629394531,-0.9984157085418701,0.0075473785400390625,-0.29936838150024414,-0.04987812042236328,0.5756735801696777,-89.09365844726562,0.7961668372154236,0.0,-6.689947128295898,-1.0925298929214478,4.169839382171631,-88.96589660644531,0.7139425873756409,0.0
65,-0.012898445129394531,-0.9979274272918701,0.010721206665039062,-0.1466965675354004,-0.18728303909301758,0.3772001266479492,-89.037109375,0.7404773831367493,0.0,-6.690680503845215,-1.0934662818908691,4.171725273132324,-88.97167205810547,0.714972734451294,0.0
70,-0.01631641387939453,-0.9986598491668701,0.008523941040039062,-0.3146357536315918,-0.12621402740478516,0.1787271499633789,-88.94396209716797,0.935998797416687,0.0,-6.692253589630127,-1.094097375869751,4.172618865966797,-88.97128295898438,0.7291574478149414,0.0
75,-0.015339851379394531,-0.9945094585418701,0.0046176910400390625,-0.22303247451782227,-0.1109471321105957,0.33139896392822266,-89.0771484375,0.8836814761161804,0.0,-6.693368911743164,-1.0946520566940308,4.174275875091553,-88.97896575927734,0.7383249402046204,0.0
80,-0.013386726379394531,-0.9959743022918701,0.010232925415039062,0.17391395568847656,-0.29415321350097656,0.3772001266479492,-89.03076171875,0.7700161337852478,0.0,-6.692499160766602,-1.0961228609085083,4.176161766052246,-88.98120880126953,0.7388118505477905,0.0
85,-0.014851570129394531,-0.9898707866668701,0.013650894165039062,-0.2841014862060547,0.04172468185424805,0.2550630569458008,-88.83255767822266,0.8594935536384583,0.0,-6.693919658660889,-1.0959142446517944,4.1774373054504395,-88.97425842285156,0.7457407116889954,0.0
90,-0.014851570129394531,-0.9942653179168701,0.0024204254150390625,0.09757804870605469,0.0569920539855957,0.3466658592224121,-89.1329345703125,0.8557741045951843,0.0,-6.693431854248047,-1.095629334449768,4.179170608520508,-88.98218536376953,0.7518286108970642,0.0
96,-0.009724617004394531,-0.9991481304168701,0.018045425415039062,-0.23829984664916992,-0.32468748092651367,0.30086469650268555,-88.82466125488281,0.5575460195541382,0.0,-6.6946234703063965,-1.0972527265548706,4.180675029754639,-88.97539520263672,0.7405222058296204,0.0
101,-0.009968757629394531,-0.9991481304168701,0.017313003540039062,-0.08562803268432617,-0.2178173065185547,0.7436127662658691,-88.85453033447266,0.5715499520301819,0.0,-6.695137023925781,-1.0985596179962158,4.185136795043945,-88.9700927734375,0.7311820387840271,0.0
106,-0.015095710754394531,-0.9991481304168701,0.012186050415039062,-0.2841014862060547,-0.08041238784790039,0.5146050453186035,-88.88762664794922,0.8655277490615845,0.0,-6.696557521820068,-1.0989617109298706,4.187709808349609,-88.9676742553711,0.7369463443756104,0.0
111,-0.012166023254394531,-0.9954860210418701,0.012674331665039062,-0.13142967224121094,-0.12621402740478516,0.6520094871520996,-88.98894500732422,0.7001309990882874,0.0,-6.697214603424072,-1.0995928049087524,4.190969944000244,-88.96923065185547,0.7347303628921509,0.0
116,-0.011189460754394531,-0.9962184429168701,0.008523941040039062,-0.19249820709228516,-0.12621402740478516,0.6214752197265625,-89.19105529785156,0.6434918642044067,0.0,-6.698176860809326,-1.1002238988876343,4.194077491760254,-88.9794692993164,0.7302934527397156,0.0
121,-0.012654304504394531,-0.9949977397918701,0.013650894165039062,-0.5131092071533203,-0.08041238784790039,0.316131591796875,-88.92826080322266,0.7285754680633545,0.0,-6.700742244720459,-1.100625991821289,4.195658206939697,-88.97986602783203,0.7298383116722107,0.0
126,-0.009968757629394531,-0.9962184429168701,0.008035659790039062,-0.3451700210571289,-0.1109471321105957,0.19399404525756836,-89.26362609863281,0.5732980370521545,0.0,-6.702467918395996,-1.1011806726455688,4.196628093719482,-88.99253845214844,0.7232271432876587,0.0
131,-0.007771492004394531,-0.9910914897918701,0.011209487915039062,-0.07036113739013672,-0.019343852996826172,0.2550630569458008,-89.21150970458984,0.449238121509552,0.0,-6.70281982421875,-1.1012773513793945,4.197903633117676,-89.00106811523438,0.7128821611404419,0.0
136,-0.011677742004394531,-0.9935328960418701,0.013162612915039062,-0.07036113739013672,-0.2178173065185547,0.30086469650268555,-88.98535919189453,0.67335045337677,0.0,-6.703171730041504,-1.1023664474487305,4.199408054351807,-89.00083923339844,0.7104049324989319,0.0
141,-0.010945320129394531,-0.9952418804168701,0.009500503540039062,-0.2535672187805176,-0.4926261901855469,-0.20295238494873047,-89.16567993164062,0.6300647258758545,0.0,-6.704439640045166,-1.1048295497894287,4.19839334487915,-89.0078125,0.7052245736122131,0.0
146,-0.010212898254394531,-0.9962184429168701,0.012186050415039062,-0.23829984664916992,-0.15674829483032227,0.7130780220031738,-89.08563232421875,0.587312638759613,0.0,-6.705631256103516,-1.1056132316589355,4.201958656311035,-89.01158905029297,0.700486958026886,0.0
151,-0.013142585754394531,-0.9910914897918701,0.011209487915039062,-0.16196393966674805,0.11806058883666992,0.8352155685424805,-89.00149536132812,0.7596901059150696,0.0,-6.7064409255981445,-1.10502290725708,4.206134796142578,-89.01203918457031,0.7029936909675598,0.0
156,-0.010457038879394531,-0.9967067241668701,0.011453628540039062,-0.22303247451782227,-0.309420108795166,0.6214752197265625,-89.1085205078125,0.6010621190071106,0.0,-6.707556247711182,-1.1065700054168701,4.209242343902588,-89.01617431640625,0.6982641220092773,0.0
161,-0.013386726379394531,-0.9954860210418701,0.0024204254150390625,-0.19249820709228516,-0.3399543762207031,0.7283453941345215,-89.21707153320312,0.7704321146011353,0.0,-6.7085185050964355,-1.1082698106765747,4.212883949279785,-89.02328491210938,0.6988372802734375,0.0
166,-0.008992195129394531,-0.9986598491668701,0.012186050415039062,-0.43677330017089844,-0.1109471321105957,0.819948673248291,-89.13117980957031,0.5158538818359375,0.0,-6.710702419281006,-1.1088244915008545,4.216983795166016,-89.02862548828125,0.6928291320800781,0.0
171,-0.013875007629394531,-0.9898707866668701,0.011453628540039062,-0.10089540481567383,-0.08041238784790039,0.5146050453186035,-88.9587173461914,0.803007960319519,0.0,-6.711206912994385,-1.1092265844345093,4.21955680847168,-89.02708435058594,0.6956414580345154,0.0
176,-0.01582813262939453,-0.9957301616668701,0.0058383941650390625,-0.375704288482666,-0.1414813995361328,0.4840707778930664,-89.02933502197266,0.9106817245483398,0.0,-6.713085651397705,-1.1099339723587036,4.221977233886719,-89.02896881103516,0.7010372877120972,0.0
181,-0.01582813262939453,-0.9962184429168701,0.0073032379150390625,-0.2841014862060547,-0.03461122512817383,0.4535360336303711,-88.99754333496094,0.910226583480835,0.0,-6.714506149291992,-1.1101070642471313,4.224245071411133,-89.02947998046875,0.706632673740387,0.0
186,-0.013875007629394531,-0.9969508647918701,0.0053501129150390625,-0.08562803268432617,-0.20254993438720703,0.1787271499633789,-89.14542388916016,0.7973478436470032,0.0,-6.714934349060059,-1.1111198663711548,4.2251386642456055,-89.03301239013672,0.7080833315849304,0.0
191,-0.01802539825439453,-1.0008571147918701,0.0046176910400390625,-0.1772313117980957,-0.06514549255371094,0.7894139289855957,-88.93490600585938,1.031772255897522,0.0,-6.7158203125,-1.1114455461502075,4.229085922241211,-89.03130340576172,0.7162452936172485,0.0
196,-0.014851570129394531,-0.9991481304168701,0.008035659790039062,-0.4215059280395508,-0.6605653762817383,-0.14188337326049805,-89.0317611694336,0.8515675663948059,0.0,-6.717927932739258,-1.1147483587265015,4.228376388549805,-89.03336334228516,0.7164869904518127,0.0
201,-0.014363288879394531,-0.9979274272918701,0.015604019165039062,-0.23829984664916992,-0.17201566696166992,0.5146050453186035,-88.78251647949219,0.8245072960853577,0.0,-6.719119548797607,-1.1156084537506104,4.230949401855469,-89.02825927734375,0.7183460593223572,0.0
206,-0.014851570129394531,-0.9935328960418701,0.010965347290039062,-0.26883411407470703,0.1638622283935547,0.316131591796875,-88.93550109863281,0.8563552498817444,0.0,-6.720463752746582,-1.1147891283035278,4.232530117034912,-89.02730560302734,0.7225138545036316,0.0
211,-0.012654304504394531,-0.9998805522918701,0.0053501129150390625,-0.46730756759643555,-0.1109471321105957,0.2550630569458008,-89.21277618408203,0.7250757813453674,0.0,-6.722800254821777,-1.1153438091278076,4.2338056564331055,-89.03401184082031,0.7220335006713867,0.0
216,-0.015339851379394531,-0.9913356304168701,0.0063266754150390625,-0.375704288482666,-0.1109471321105957,0.5604066848754883,-89.04105377197266,0.886501669883728,0.0,-6.724678993225098,-1.1158984899520874,4.236607551574707,-89.0360107421875,0.7253327965736389,0.0
221,-0.013142585754394531,-0.9989039897918701,0.018045425415039062,0.03650951385498047,-0.1414813995361328,0.6825437545776367,-88.71973419189453,0.7536744475364685,0.0,-6.724496364593506,-1.1166058778762817,4.240020275115967,-89.02860260009766,0.7252895832061768,0.0
226,-0.012410163879394531,-0.9949977397918701,0.009744644165039062,-0.13142967224121094,-0.3857560157775879,0.49933767318725586,-89.09147644042969,0.7145534157752991,0.0,-6.72515344619751,-1.1185346841812134,4.242516994476318,-89.03065490722656,0.7231635451316833,0.0
231,-0.007527351379394531,-0.9940211772918701,0.0073032379150390625,-0.2535672187805176,0.07225894927978516,0.7436127662658691,-89.39549255371094,0.43385955691337585,0.0,-6.726421356201172,-1.118173360824585,4.246234893798828,-89.03990173339844,0.7171674966812134,0.0
236,-0.01680469512939453,-0.9971950054168701,0.013895034790039062,-0.3451700210571289,-0.20254993438720703,0.1787271499633789,-88.7473373413086,0.9653613567352295,0.0,-6.728147029876709,-1.1191861629486084,4.247128486633301,-89.03529357910156,0.7215172648429871,0.0
242,-0.012410163879394531,-0.9959743022918701,0.009988784790039062,-0.1772313117980957,-0.06514549255371094,0.23979568481445312,-89.08362579345703,0.7138512134552002,0.0,-6.72903299331665,-1.1195118427276611,4.248327255249023,-89.03717803955078,0.7210366129875183,0.0
247,-0.011189460754394531,-0.9969508647918701,0.0055942535400390625,-0.1772313117980957,0.13332796096801758,0.423001766204834,-89.28107452392578,0.6430325508117676,0.0,-6.730096340179443,-1.1187118291854858,4.250865459442139,-89.04327392578125,0.7202027440071106,0.0
252,-0.012654304504394531,-0.9942653179168701,0.0036411285400390625,-0.039826393127441406,-0.3399543762207031,0.16345977783203125,-89.2412338256836,0.7291758060455322,0.0,-6.730295658111572,-1.1204116344451904,4.251682758331299,-89.04750061035156,0.7187202572822571,0.0
257,-0.010212898254394531,-0.9974391460418701,0.0048618316650390625,-0.05509376525878906,-0.08041238784790039,0.4535360336303711,-89.35028839111328,0.5866308212280273,0.0,-6.730571269989014,-1.1208137273788452,4.253950595855713,-89.05382537841797,0.7156856656074524,0.0
262,-0.014119148254394531,-0.9937770366668701,0.009988784790039062,-0.039826393127441406,-0.20254993438720703,-0.20295238494873047,-89.0029525756836,0.8139374256134033,0.0,-6.730770587921143,-1.1218265295028687,4.252935886383057,-89.05302429199219,0.7166226506233215,0.0
267,-0.008015632629394531,-0.9920680522918701,0.011209487915039062,0.06704378128051758,-0.12621402740478516,0.43826913833618164,-89.20417022705078,0.4628942608833313,0.0,-6.730435371398926,-1.1224576234817505,4.255127429962158,-89.05561065673828,0.7111051678657532,0.0
272,-0.013386726379394531,-0.9945094585418701,0.013406753540039062,-0.2535672187805176,-0.1414813995361328,0.8504829406738281,-88.90862274169922,0.7711207866668701,0.0,-6.731703281402588,-1.1231650114059448,4.259379863739014,-89.05406188964844,0.7115505337715149,0.0
277,-0.012654304504394531,-0.9918239116668701,0.0029087066650390625,-0.49784183502197266,-0.09567975997924805,0.8046813011169434,-89.24996185302734,0.7309722900390625,0.0,-6.734192371368408,-1.123643398284912,4.263403415679932,-89.0601577758789,0.7114437222480774,0.0
282,-0.012410163879394531,-1.0006129741668701,0.0065708160400390625,-0.13142967224121094,-0.23308420181274414,0.8504829406738281,-89.19597625732422,0.7105626463890076,0.0,-6.734849452972412,-1.1248087882995605,4.267655849456787,-89.06329345703125,0.7102835178375244,0.0
287,-0.01607227325439453,-0.9996364116668701,0.008035659790039062,-0.22303247451782227,0.011190414428710938,0.5756735801696777,-88.97018432617188,0.9210992455482483,0.0,-6.735964775085449,-1.1247528791427612,4.270534038543701,-89.06270599365234,0.7141509652137756,0.0
292,-0.014119148254394531,-0.9996364116668701,0.016824722290039062,-0.05509376525878906,-0.004076957702636719,0.6214752197265625,-88.74129486083984,0.8090934753417969,0.0,-6.736240386962891,-1.1247732639312744,4.273641586303711,-89.0572509765625,0.7158215045928955,0.0
297,-0.01875782012939453,-0.9991481304168701,0.012918472290039062,0.005974769592285156,-0.1109471321105957,0.11765861511230469,-88.69415283203125,1.075443983078003,0.0,-6.736210346221924,-1.1253279447555542,4.274230003356934,-89.05084991455078,0.721583366394043,0.0
302,-0.01582813262939453,-0.9945094585418701,0.012918472290039062,0.021242141723632812,-0.09567975997924805,0.6062078475952148,-88.82310485839844,0.9117380976676941,0.0,-6.7361040115356445,-1.1258063316345215,4.277261257171631,-89.04680633544922,0.7243987917900085,0.0
307,-0.011677742004394531,-0.9991481304168701,0.0063266754150390625,-0.4520401954650879,-0.4773592948913574,0.30086469650268555,-89.2384262084961,0.6696118712425232,0.0,-6.738364219665527,-1.1281931400299072,4.278765678405762,-89.05229187011719,0.72111976146698,0.0
312,-0.012410163879394531,-0.9964625835418701,0.013650894165039062,-0.22303247451782227,0.45393848419189453,0.7741470336914062,-88.9393310546875,0.7134703993797302,0.0,-6.7394795417785645,-1.1259233951568604,4.282636642456055,-89.0514907836914,0.7232229709625244,0.0
317,-0.014607429504394531,-0.9957301616668701,0.009256362915039062,0.05177640914916992,-0.04987812042236328,0.23979568481445312,-89.00502014160156,0.8404363989830017,0.0,-6.73922061920166,-1.1261727809906006,4.283835411071777,-89.05046844482422,0.7249177694320679,0.0
322,-0.015095710754394531,-0.9986598491668701,0.016580581665039062,-0.2077655792236328,0.13332796096801758,0.7130780220031738,-88.7137451171875,0.8658959269523621,0.0,-6.740259647369385,-1.1255061626434326,4.287400722503662,-89.04598999023438,0.7278749346733093,0.0
327,-0.015095710754394531,-0.9935328960418701,0.010232925415039062,-0.1772313117980957,0.14859485626220703,0.4535360336303711,-88.94840240478516,0.8704373240470886,0.0,-6.741145610809326,-1.1247631311416626,4.289668560028076,-89.0452880859375,0.7309020161628723,0.0
332,-0.014363288879394531,-0.9942653179168701,0.014627456665039062,-0.11616230010986328,-0.2178173065185547,0.5909409523010254,-88.81880950927734,0.8275553584098816,0.0,-6.741726398468018,-1.1258522272109985,4.292623043060303,-89.0422592163086,0.7313663959503174,0.0
337,-0.013386726379394531,-0.9925563335418701,0.009500503540039062,-0.1466965675354004,-0.2483515739440918,0.6672768592834473,-89.05250549316406,0.7726728320121765,0.0,-6.742459774017334,-1.127094030380249,4.29595947265625,-89.04314422607422,0.7307921648025513,0.0
342,-0.01729297637939453,-0.9974391460418701,0.011209487915039062,-0.29936838150024414,-0.12621402740478516,0.3466658592224121,-88.81636810302734,0.9931961894035339,0.0,-6.743956565856934,-1.1277251243591309,4.297692775726318,-89.04110717773438,0.7342351078987122,0.0
347,-0.014851570129394531,-0.9971950054168701,0.0073032379150390625,-0.19249820709228516,-0.2178173065185547,0.16345977783203125,-89.0491714477539,0.853239893913269,0.0,-6.7449188232421875,-1.1288142204284668,4.2985100746154785,-89.04217529296875,0.7349829077720642,0.0
352,-0.01778125762939453,-0.9981715679168701,0.0051059722900390625,-0.589444637298584,0.10279369354248047,-0.01974630355834961,-88.93821716308594,1.020535945892334,0.0,-6.747866153717041,-1.1283003091812134,4.2984113693237305,-89.04350280761719,0.7398033142089844,0.0
357,-0.014119148254394531,-0.9942653179168701,0.0048618316650390625,-0.2841014862060547,-0.18728303909301758,-0.20295238494873047,-89.13954162597656,0.8135691285133362,0.0,-6.749286651611328,-1.1292366981506348,4.297396659851074,-89.04633331298828,0.7399819493293762,0.0
362,-0.009480476379394531,-0.9947535991668701,0.0070590972900390625,-0.43677330017089844,-0.06514549255371094,0.19399404525756836,-89.31922912597656,0.546025812625885,0.0,-6.751470565795898,-1.1295623779296875,4.298366546630859,-89.05250549316406,0.7368001341819763,0.0
367,-0.011677742004394531,-0.9962184429168701,0.010232925415039062,-0.11616230010986328,-0.09567975997924805,0.316131591796875,-89.10707092285156,0.6715589165687561,0.0,-6.75205135345459,-1.1300407648086548,4.299947261810303,-89.05387115478516,0.7353775501251221,0.0
372,-0.010701179504394531,-0.9984157085418701,0.0029087066650390625,0.06704378128051758,0.1638622283935547,0.819948673248291,-89.36363983154297,0.6140792369842529,0.0,-6.751716136932373,-1.1292214393615723,4.304047107696533,-89.0580062866211,0.7344368696212769,0.0
377,-0.009236335754394531,-0.9964625835418701,0.010965347290039062,-0.375704288482666,-0.06514549255371094,0.423001766204834,-89.17568969726562,0.5310343503952026,0.0,-6.753594875335693,-1.129547119140625,4.306161880493164,-89.06153106689453,0.731217086315155,0.0
382,-0.011921882629394531,-0.9964625835418701,0.009988784790039062,-0.2535672187805176,0.20966386795043945,0.636742115020752,-89.10576629638672,0.6854313015937805,0.0,-6.7548627853393555,-1.1284987926483154,4.309345722198486,-89.06340026855469,0.7316053509712219,0.0
387,-0.013875007629394531,-0.9937770366668701,0.0068149566650390625,-0.19249820709228516,-0.309420108795166,0.4840707778930664,-89.10883331298828,0.7998867034912109,0.0,-6.755825042724609,-1.1300458908081055,4.311766147613525,-89.06497955322266,0.7310317754745483,0.0
393,-0.014119148254394531,-0.9991481304168701,0.012186050415039062,0.2655167579650879,-0.15674829483032227,0.8962841033935547,-88.93060302734375,0.809543251991272,0.0,-6.754497528076172,-1.1308295726776123,4.316247463226318,-89.06181335449219,0.7313417196273804,0.0
398,-0.013386726379394531,-0.9935328960418701,0.012674331665039062,-0.32990312576293945,0.011190414428710938,0.5146050453186035,-88.93701171875,0.7718859910964966,0.0,-6.756476879119873,-1.1307624578475952,4.319334983825684,-89.06205749511719,0.7319620251655579,0.0
403,-0.012410163879394531,-0.9984157085418701,0.017313003540039062,-0.07036113739013672,0.3623356819152832,0.5756735801696777,-88.77776336669922,0.7120345830917358,0.0,-6.756828784942627,-1.128950834274292,4.322213172912598,-89.05855560302734,0.7334796786308289,0.0
408,-0.013386726379394531,-0.9920680522918701,0.0075473785400390625,-0.05509376525878906,-0.5078935623168945,0.423001766204834,-89.1125259399414,0.7730661034584045,0.0,-6.757104396820068,-1.1314903497695923,4.3243279457092285,-89.0595474243164,0.7315042614936829,0.0
413,-0.011921882629394531,-0.9967067241668701,0.009012222290039062,-0.05509376525878906,-0.18728303909301758,0.08712387084960938,-89.14095306396484,0.685269832611084,0.0,-6.75738000869751,-1.1324267387390137,4.324763774871826,-89.06089782714844,0.7299674153327942,0.0
418,-0.010701179504394531,-0.9935328960418701,0.013895034790039062,-0.23829984664916992,-0.06514549255371094,0.27032995223999023,-88.98870086669922,0.6170392036437988,0.0,-6.758571624755859,-1.1327524185180664,4.326115608215332,-89.06112670898438,0.7281637191772461,0.0
423,-0.012898445129394531,-0.9989039897918701,0.009012222290039062,-0.4062385559082031,-0.1414813995361328,0.4535360336303711,-89.0975341796875,0.7397661209106445,0.0,-6.760602951049805,-1.1334598064422607,4.328383445739746,-89.06360626220703,0.7276163697242737,0.0
428,-0.012166023254394531,-0.9957301616668701,0.010721206665039062,0.1281123161315918,-0.004076957702636719,0.8504829406738281,-89.0669937133789,0.6999754905700684,0.0,-6.759962558746338,-1.133480191230774,4.332635879516602,-89.06301879882812,0.7272403836250305,0.0
433,-0.012166023254394531,-0.9947535991668701,0.0063266754150390625,-0.19249820709228516,0.34706830978393555,0.5756735801696777,-89.2102279663086,0.7006890177726746,0.0,-6.760924816131592,-1.1317448616027832,4.335514068603516,-89.06584167480469,0.7286149263381958,0.0
438,-0.01607227325439453,-0.9942653179168701,0.0043735504150390625,-0.05509376525878906,-0.18728303909301758,0.8352155685424805,-89.04022979736328,0.926095187664032,0.0,-6.761200428009033,-1.1326812505722046,4.339690208435059,-89.06578826904297,0.7301860451698303,0.0
443,-0.015583992004394531,-1.0001246929168701,0.009500503540039062,-0.43677330017089844,-0.019343852996826172,0.6214752197265625,-88.95450592041016,0.892673134803772,0.0,-6.7633843421936035,-1.1327779293060303,4.342797756195068,-89.0665512084961,0.7321253418922424,0.0
448,-0.013386726379394531,-0.9976832866668701,0.011697769165039062,-0.23829984664916992,-0.40102338790893555,0.9115514755249023,-88.97916412353516,0.7686850428581238,0.0,-6.764575958251953,-1.1347830295562744,4.347355365753174,-89.06664276123047,0.7305988669395447,0.0
453,-0.01973438262939453,-1.0013453960418701,0.0024204254150390625,-0.19249820709228516,-0.18728303909301758,0.43826913833618164,-88.86251068115234,1.1290282011032104,0.0,-6.765538215637207,-1.1357194185256958,4.349546909332275,-89.06507873535156,0.7345758080482483,0.0
458,-0.013142585754394531,-0.9932887554168701,0.011697769165039062,-0.13142967224121094,0.28599977493286133,0.056589603424072266,-88.9852066040039,0.7580057382583618,0.0,-6.766195297241211,-1.1342893838882446,4.34982967376709,-89.06475067138672,0.7362741231918335,0.0
463,-0.01607227325439453,-0.9998805522918701,0.010965347290039062,-0.1466965675354004,0.10279369354248047,0.40773487091064453,-88.8852310180664,0.9208487868309021,0.0,-6.766928672790527,-1.1337754726409912,4.351868152618408,-89.06330108642578,0.7390139698982239,0.0
468,-0.012166023254394531,-0.9918239116668701,0.0075473785400390625,-0.2077655792236328,-0.03461122512817383,-0.06554794311523438,-89.1729965209961,0.702752411365509,0.0,-6.767967700958252,-1.133948564529419,4.351540565490723,-89.06564331054688,0.7384081482887268,0.0
473,-0.010457038879394531,-0.9996364116668701,0.009012222290039062,-0.2841014862060547,-0.26361894607543945,0.20926141738891602,-89.20880889892578,0.599315881729126,0.0,-6.769388198852539,-1.135266661643982,4.35258674621582,-89.0687484741211,0.7354514598846436,0.0
478,-0.014851570129394531,-0.9964625835418701,0.0065708160400390625,-0.5283761024475098,-0.43155765533447266,0.1481928825378418,-89.0662841796875,0.8538712859153748,0.0,-6.772029876708984,-1.1374244689941406,4.353327751159668,-89.07132720947266,0.7347161173820496,0.0
483,-0.013630867004394531,-0.9991481304168701,0.0070590972900390625,0.03650951385498047,-0.2788858413696289,0.6672768592834473,-89.11981201171875,0.7815890312194824,0.0,-6.771847248077393,-1.1388188600540161,4.356664180755615,-89.07171630859375,0.7338865399360657,0.0
488,-0.011921882629394531,-0.9984157085418701,0.0002231597900390625,-0.07036113739013672,0.026457786560058594,0.7741470336914062,-89.31575775146484,0.6841249465942383,0.0,-6.7721991539001465,-1.1386865377426147,4.360535144805908,-89.07489776611328,0.7334395051002502,0.0
493,-0.011189460754394531,-0.9989039897918701,0.0063266754150390625,0.09757804870605469,-0.08041238784790039,0.7130780220031738,-89.26274108886719,0.6417725682258606,0.0,-6.771711349487305,-1.1390886306762695,4.364100456237793,-89.07657623291016,0.7319859862327576,0.0
498,-0.01607227325439453,-0.9952418804168701,0.0055942535400390625,-0.039826393127441406,-0.08041238784790039,0.3772001266479492,-89.02037048339844,0.925180971622467,0.0,-6.771910667419434,-1.1394907236099243,4.365986347198486,-89.07612609863281,0.7337973713874817,0.0
503,-0.011189460754394531,-0.9986598491668701,0.008035659790039062,-0.2535672187805176,0.011190414428710938,0.3466658592224121,-89.20968627929688,0.6419215798377991,0.0,-6.773178577423096,-1.139434814453125,4.367719650268555,-89.07889556884766,0.7328101396560669,0.0
508,-0.015095710754394531,-0.9947535991668701,0.015604019165039062,-0.05509376525878906,-0.20254993438720703,0.40773487091064453,-88.74969482421875,0.8693085312843323,0.0,-6.773454189300537,-1.1404476165771484,4.369758129119873,-89.0754623413086,0.7333462238311768,0.0
513,-0.010457038879394531,-0.9974391460418701,0.0058383941650390625,-0.2841014862060547,-0.09567975997924805,0.5451393127441406,-89.31206512451172,0.6006501317024231,0.0,-6.774874687194824,-1.1409260034561157,4.372483730316162,-89.07951354980469,0.7313894629478455,0.0
518,-0.012410163879394531,-0.9893825054168701,0.0070590972900390625,-0.26883411407470703,-0.03461122512817383,-0.08081483840942383,-89.17324829101562,0.7186246514320374,0.0,-6.776218891143799,-1.1410990953445435,4.372079849243164,-89.08187866210938,0.7310766577720642,0.0
523,-0.011677742004394531,-0.9932887554168701,0.015115737915039062,-0.1772313117980957,0.10279369354248047,0.22452878952026367,-88.89832305908203,0.6734970808029175,0.0,-6.77710485458374,-1.14058518409729,4.373202323913574,-89.08073425292969,0.7309502959251404,0.0
528,-0.011433601379394531,-0.9947535991668701,0.012674331665039062,-0.2841014862060547,-0.3857560157775879,0.2855973243713379,-89.01692962646484,0.6584696769714355,0.0,-6.778525352478027,-1.1425139904022217,4.374630451202393,-89.08143615722656,0.728249192237854,0.0
533,-0.010945320129394531,-0.9940211772918701,0.0033969879150390625,-0.07036113739013672,0.4997401237487793,0.056589603424072266,-89.33944702148438,0.6308634877204895,0.0,-6.778877258300781,-1.1400152444839478,4.374913215637207,-89.08458709716797,0.7296620011329651,0.0
539,-0.012166023254394531,-1.0003688335418701,0.0063266754150390625,-0.10089540481567383,-0.2178173065185547,0.8810172080993652,-89.21466064453125,0.6967564821243286,0.0,-6.77938175201416,-1.1411043405532837,4.3793182373046875,-89.08648681640625,0.7282293438911438,0.0
544,-0.012166023254394531,-0.9959743022918701,0.011453628540039062,-0.16196393966674805,-0.5078935623168945,0.6672768592834473,-89.03885650634766,0.6997982263565063,0.0,-6.780353546142578,-1.1441516876220703,4.383321762084961,-89.0869369506836,0.724909245967865,0.0
549,-0.013630867004394531,-0.9913356304168701,0.0046176910400390625,-0.16196393966674805,0.026457786560058594,0.8657498359680176,-89.16826629638672,0.7877588868141174,0.0,-6.781163215637207,-1.144019365310669,4.387650489807129,-89.08860778808594,0.7257109880447388,0.0
554,-0.009968757629394531,-0.9940211772918701,0.0063266754150390625,-0.16196393966674805,0.026457786560058594,0.9726200103759766,-89.3194808959961,0.5745722651481628,0.0,-6.781972885131836,-1.1438870429992676,4.392513751983643,-89.09185791015625,0.7242389917373657,0.0
559,-0.013386726379394531,-0.9952418804168701,0.011697769165039062,-0.2535672187805176,0.11806058883666992,0.7436127662658691,-88.9766616821289,0.7705701589584351,0.0,-6.783240795135498,-1.143296718597412,4.396231651306152,-89.0918960571289,0.725311279296875,0.0
564,-0.012654304504394531,-0.9949977397918701,0.010477066040039062,-0.2841014862060547,-0.20254993438720703,0.8046813011169434,-89.05406188964844,0.7286036610603333,0.0,-6.784661293029785,-1.1443095207214355,4.40025520324707,-89.09290313720703,0.7243435978889465,0.0
569,-0.015339851379394531,-0.9942653179168701,0.011941909790039062,-0.2535672187805176,-0.1414813995361328,0.23979568481445312,-88.87987518310547,0.8838441967964172,0.0,-6.785929203033447,-1.1450169086456299,4.401453971862793,-89.0919418334961,0.7253033518791199,0.0
574,-0.01582813262939453,-0.9986598491668701,0.009012222290039062,-0.22303247451782227,0.08752632141113281,0.07185697555541992,-88.95513153076172,0.9079892039299011,0.0,-6.787044525146484,-1.144579291343689,4.40181303024292,-89.09162902832031,0.727625846862793,0.0
579,-0.015583992004394531,-0.9935328960418701,0.010477066040039062,-0.3451700210571289,-0.23308420181274414,0.27032995223999023,-88.91719818115234,0.8985853791236877,0.0,-6.7887701988220215,-1.1457446813583374,4.403164863586426,-89.09154510498047,0.728229820728302,0.0
584,-0.012166023254394531,-0.9981715679168701,0.009988784790039062,-0.08562803268432617,-0.15674829483032227,0.1481928825378418,-89.09651184082031,0.6982691287994385,0.0,-6.789198398590088,-1.1465283632278442,4.403905868530273,-89.0920181274414,0.7271479368209839,0.0
589,-0.011189460754394531,-0.9928004741668701,0.009988784790039062,-0.11616230010986328,-0.32468748092651367,0.43826913833618164,-89.13443756103516,0.6456980109214783,0.0,-6.789779186248779,-1.1481517553329468,4.406097412109375,-89.09302520751953,0.7247135043144226,0.0
594,-0.009724617004394531,-1.0013453960418701,0.009012222290039062,-0.08562803268432617,-0.2788858413696289,0.5146050453186035,-89.24140930175781,0.5563908815383911,0.0,-6.790207386016846,-1.1495461463928223,4.408670425415039,-89.0949478149414,0.7216330170631409,0.0
599,-0.008992195129394531,-0.9962184429168701,0.014383316040039062,-0.2535672187805176,-0.08041238784790039,0.7130780220031738,-89.02450561523438,0.5171025991439819,0.0,-6.791475296020508,-1.149948239326477,4.412235736846924,-89.09549713134766,0.7191808819770813,0.0
604,-0.01826953887939453,-1.0011012554168701,0.008279800415039062,-0.1772313117980957,0.026457786560058594,0.40773487091064453,-88.85216522216797,1.0454641580581665,0.0,-6.792361259460449,-1.1498159170150757,4.414274215698242,-89.09394073486328,0.7225703597068787,0.0
609,-0.01729297637939453,-0.9940211772918701,0.008768081665039062,-0.2077655792236328,-0.09567975997924805,1.277963638305664,-88.88256072998047,0.9966347813606262,0.0,-6.793400287628174,-1.150294303894043,4.420663833618164,-89.09286499023438,0.7248186469078064,0.0
614,-0.014119148254394531,-0.9925563335418701,0.0007114410400390625,-0.11616230010986328,-0.1414813995361328,0.819948673248291,-89.18399047851562,0.8149792551994324,0.0,-6.793981075286865,-1.1510016918182373,4.4247636795043945,-89.0943374633789,0.7250087857246399,0.0
619,-0.015339851379394531,-0.9974391460418701,0.009012222290039062,-0.5589103698730469,-0.29415321350097656,0.056589603424072266,-88.9781265258789,0.8810598850250244,0.0,-6.796775817871094,-1.1524724960327148,4.425046443939209,-89.09596252441406,0.7250856161117554,0.0
624,-0.012166023254394531,-0.9954860210418701,0.0048618316650390625,-0.2077655792236328,-0.5384278297424316,0.3466658592224121,-89.24597930908203,0.700179398059845,0.0,-6.797814846038818,-1.1551645994186401,4.426779747009277,-89.09845733642578,0.7221763730049133,0.0
629,-0.014119148254394531,-0.9991481304168701,0.009256362915039062,-0.3146357536315918,-0.15674829483032227,0.2855973243713379,-89.03195190429688,0.8095687031745911,0.0,-6.7993879318237305,-1.155948281288147,4.428207874298096,-89.099365234375,0.7222498059272766,0.0
634,-0.009236335754394531,-0.9945094585418701,0.008279800415039062,-0.10089540481567383,-0.2483515739440918,0.04132270812988281,-89.285400390625,0.532090961933136,0.0,-6.799892425537109,-1.1571900844573975,4.428414344787598,-89.1016616821289,0.7191809415817261,0.0
639,-0.010945320129394531,-0.9954860210418701,0.013162612915039062,-0.2535672187805176,-0.23308420181274414,0.43826913833618164,-89.01481628417969,0.629883885383606,0.0,-6.8011603355407715,-1.158355474472046,4.430605888366699,-89.10208129882812,0.7171674370765686,0.0
644,-0.011677742004394531,-0.9932887554168701,0.008523941040039062,-0.05509376525878906,-0.06514549255371094,0.23979568481445312,-89.16609191894531,0.6735502481460571,0.0,-6.801435947418213,-1.1586811542510986,4.431804656982422,-89.10296630859375,0.716427206993103,0.0
649,-0.012166023254394531,-0.9949977397918701,0.015604019165039062,0.005974769592285156,0.1943964958190918,0.3924674987792969,-88.86077880859375,0.7004451751708984,0.0,-6.801405906677246,-1.1577091217041016,4.433766841888428,-89.10063171386719,0.717237651348114,0.0
654,-0.014851570129394531,-0.9959743022918701,0.009012222290039062,-0.29936838150024414,-0.416290283203125,0.529871940612793,-89.000732421875,0.8542734384536743,0.0,-6.802902698516846,-1.1597905158996582,4.436416149139404,-89.10116577148438,0.7164751291275024,0.0
659,-0.011677742004394531,-0.9947535991668701,0.011941909790039062,0.05177640914916992,0.026457786560058594,0.5146050453186035,-89.03804779052734,0.6725347638130188,0.0,-6.802643775939941,-1.1596581935882568,4.438989162445068,-89.10031127929688,0.7161915302276611,0.0
664,-0.015095710754394531,-0.9962184429168701,0.010721206665039062,-0.19249820709228516,-0.17201566696166992,0.7588796615600586,-88.93523406982422,0.8680869936943054,0.0,-6.803606033325195,-1.1605182886123657,4.442783355712891,-89.09971618652344,0.7167659401893616,0.0
669,-0.01851367950439453,-0.9957301616668701,0.0029087066650390625,-0.23829984664916992,-0.17201566696166992,0.5756735801696777,-88.9217529296875,1.065177083015442,0.0,-6.804797649383545,-1.1613783836364746,4.445661544799805,-89.09923553466797,0.7191705107688904,0.0
674,-0.014851570129394531,-0.9925563335418701,0.012918472290039062,-0.3146357536315918,-0.3857560157775879,0.5756735801696777,-88.86388397216797,0.8571772575378418,0.0,-6.806370735168457,-1.1633071899414062,4.448539733886719,-89.09860229492188,0.7185437083244324,0.0
679,-0.010212898254394531,-0.9954860210418701,0.011209487915039062,-0.024559497833251953,0.2249307632446289,0.46880340576171875,-89.12728118896484,0.5877514481544495,0.0,-6.806493759155273,-1.1621825695037842,4.450883865356445,-89.09899139404297,0.7184465527534485,0.0
684,-0.013142585754394531,-0.9974391460418701,0.0014438629150390625,-0.36043739318847656,-0.18728303909301758,0.13292551040649414,-89.24055480957031,0.7549035549163818,0.0,-6.808295726776123,-1.1631189584732056,4.4515485763549805,-89.10208129882812,0.7178549766540527,0.0
690,-0.01582813262939453,-1.0008571147918701,0.009500503540039062,-0.1466965675354004,-0.46209192276000977,0.33139896392822266,-88.94332122802734,0.9059922099113464,0.0,-6.809175968170166,-1.1658915281295776,4.4535369873046875,-89.10149383544922,0.7168385982513428,0.0
695,-0.015095710754394531,-0.9964625835418701,0.014383316040039062,-0.29936838150024414,-0.019343852996826172,0.46880340576171875,-88.80126190185547,0.8678341507911682,0.0,-6.810672760009766,-1.1659882068634033,4.455881118774414,-89.10022735595703,0.7181257009506226,0.0
700,-0.012410163879394531,-0.9962184429168701,0.009256362915039062,-0.024559497833251953,-0.32468748092651367,0.36193323135375977,-89.10964965820312,0.7136813998222351,0.0,-6.810795783996582,-1.1676115989685059,4.457690715789795,-89.10043334960938,0.7164765000343323,0.0
705,-0.015095710754394531,-0.9967067241668701,0.0055942535400390625,-0.08562803268432617,-0.09567975997924805,0.5604066848754883,-89.07463073730469,0.8676983118057251,0.0,-6.811223983764648,-1.1680899858474731,4.4604926109313965,-89.10062408447266,0.717375636100769,0.0
710,-0.012898445129394531,-0.9971950054168701,0.0077915191650390625,-0.29936838150024414,-0.004076957702636719,0.5604066848754883,-89.13423919677734,0.7410413026809692,0.0,-6.812720775604248,-1.1681103706359863,4.463294506072998,-89.10240936279297,0.7175694108009338,0.0
715,-0.010945320129394531,-0.9954860210418701,0.0065708160400390625,-0.07036113739013672,-0.32468748092651367,0.40773487091064453,-89.26527404785156,0.6299251914024353,0.0,-6.813072681427002,-1.1697337627410889,4.465332984924316,-89.1042251586914,0.7151713371276855,0.0
720,-0.01704883575439453,-0.9986598491668701,0.015359878540039062,-0.19249820709228516,-0.3399543762207031,0.33139896392822266,-88.68367004394531,0.9779265522956848,0.0,-6.814034938812256,-1.1714335680007935,4.466989994049072,-89.10140228271484,0.7158433794975281,0.0
725,-0.012898445129394531,-0.9935328960418701,0.010721206665039062,-0.4062385559082031,-0.2483515739440918,0.36193323135375977,-89.03284454345703,0.7437518835067749,0.0,-6.816066265106201,-1.172675371170044,4.468799591064453,-89.10279846191406,0.714862048625946,0.0
730,-0.01631641387939453,-0.9952418804168701,0.009988784790039062,-0.3146357536315918,-0.09567975997924805,0.5451393127441406,-88.89875793457031,0.939199686050415,0.0,-6.817639350891113,-1.1731537580490112,4.471525192260742,-89.1025390625,0.7163838744163513,0.0
735,-0.014851570129394531,-0.9959743022918701,0.0024204254150390625,-0.23829984664916992,0.011190414428710938,0.5146050453186035,-89.1344223022461,0.8543058633804321,0.0,-6.818830966949463,-1.173097848892212,4.474098205566406,-89.10400390625,0.7176616191864014,0.0
740,-0.012654304504394531,-0.9984157085418701,0.010477066040039062,-0.2535672187805176,0.07225894927978516,0.20926141738891602,-89.05729675292969,0.7261098623275757,0.0,-6.820098876953125,-1.1727365255355835,4.475144386291504,-89.10484313964844,0.7180943489074707,0.0
745,-0.012654304504394531,-0.9945094585418701,0.015604019165039062,-0.2077655792236328,-0.04987812042236328,0.10239124298095703,-88.84272003173828,0.7289119958877563,0.0,-6.82113790512085,-1.1729859113693237,4.475656509399414,-89.10356903076172,0.7179422974586487,0.0
750,-0.013630867004394531,-0.9954860210418701,0.011941909790039062,-0.4215059280395508,-0.3399543762207031,0.1481928825378418,-88.95708465576172,0.7844270467758179,0.0,-6.823245525360107,-1.1746857166290283,4.476397514343262,-89.1043701171875,0.7168399691581726,0.0
755,-0.01680469512939453,-0.9976832866668701,0.0075473785400390625,-0.2841014862060547,-0.17201566696166992,0.33139896392822266,-88.94218444824219,0.9649550318717957,0.0,-6.8246660232543945,-1.1755458116531372,4.478054523468018,-89.10436248779297,0.718153178691864,0.0
760,-0.012166023254394531,-0.9898707866668701,0.0041294097900390625,-0.2077655792236328,-0.29415321350097656,0.7741470336914062,-89.25638580322266,0.7041531205177307,0.0,-6.825705051422119,-1.1770166158676147,4.4819254875183105,-89.1067123413086,0.7165734767913818,0.0
765,-0.013142585754394531,-0.9915797710418701,0.010232925415039062,-0.2841014862060547,-0.3399543762207031,0.43826913833618164,-89.03763580322266,0.7593241930007935,0.0,-6.827125549316406,-1.1787164211273193,4.484117031097412,-89.1075210571289,0.7152589559555054,0.0
770,-0.015339851379394531,-0.9979274272918701,0.0063266754150390625,-0.3146357536315918,-0.08041238784790039,0.2855973243713379,-89.0473861694336,0.8806470632553101,0.0,-6.828698635101318,-1.1791185140609741,4.4855451583862305,-89.10855865478516,0.7162885665893555,0.0
775,-0.011677742004394531,-0.9986598491668701,0.009988784790039062,-0.2841014862060547,0.0569920539855957,0.07185697555541992,-89.11842346191406,0.6699191927909851,0.0,-6.8301191329956055,-1.1788336038589478,4.485904216766357,-89.11005401611328,0.7161720991134644,0.0
780,-0.012410163879394531,-0.9930446147918701,0.010477066040039062,-0.2841014862060547,0.14859485626220703,-0.004478931427001953,-89.06300354003906,0.7159531712532043,0.0,-6.831539630889893,-1.1780905723571777,4.485881805419922,-89.1110610961914,0.7169068455696106,0.0
785,-0.014363288879394531,-1.0020778179168701,0.0063266754150390625,-0.32990312576293945,0.07225894927978516,0.33139896392822266,-89.1026840209961,0.8211768269538879,0.0,-6.833189010620117,-1.1777292490005493,4.487538814544678,-89.11262512207031,0.7181561589241028,0.0
790,-0.012166023254394531,-0.9949977397918701,0.011941909790039062,-0.19249820709228516,-0.2483515739440918,0.3772001266479492,-89.0184326171875,0.7004808187484741,0.0,-6.834151268005371,-1.1789710521697998,4.489424705505371,-89.11277770996094,0.7167744636535645,0.0
795,-0.012410163879394531,-0.9974391460418701,0.0029087066650390625,-0.2535672187805176,-0.04987812042236328,0.1787271499633789,-89.2678451538086,0.7128357887268066,0.0,-6.835419178009033,-1.17922043800354,4.490318298339844,-89.11534881591797,0.7164937853813171,0.0
800,-0.014851570129394531,-0.9962184429168701,0.011453628540039062,-0.22303247451782227,-0.004076957702636719,0.316131591796875,-88.92145538330078,0.854042649269104,0.0,-6.83653450012207,-1.1792408227920532,4.491899013519287,-89.11481475830078,0.7176374197006226,0.0
805,-0.015095710754394531,-0.9928004741668701,0.0053501129150390625,-0.08562803268432617,-0.019343852996826172,0.2550630569458008,-89.07579040527344,0.8711128830909729,0.0,-6.836962699890137,-1.179337501525879,4.4931745529174805,-89.11490631103516,0.7188358902931213,0.0
810,-0.012166023254394531,-0.9940211772918701,0.011697769165039062,-0.009292125701904297,0.2249307632446289,0.5604066848754883,-89.02726745605469,0.7011709213256836,0.0,-6.837008953094482,-1.1782128810882568,4.495976448059082,-89.11421203613281,0.7198026180267334,0.0
815,-0.011677742004394531,-0.9937770366668701,0.009988784790039062,-0.024559497833251953,-0.37048912048339844,0.636742115020752,-89.11408996582031,0.673210084438324,0.0,-6.837131977081299,-1.1800652742385864,4.499160289764404,-89.11433410644531,0.717575192451477,0.0
820,-0.012654304504394531,-0.9979274272918701,0.015848159790039062,-0.039826393127441406,0.17912960052490234,0.529871940612793,-88.83576202392578,0.7264135479927063,0.0,-6.837331295013428,-1.1791696548461914,4.501809597015381,-89.1122055053711,0.7185371518135071,0.0
825,-0.012166023254394531,-0.9915797710418701,0.0077915191650390625,-0.22303247451782227,0.28599977493286133,0.316131591796875,-89.16526794433594,0.7029240727424622,0.0,-6.838446617126465,-1.1777396202087402,4.503390312194824,-89.11375427246094,0.7198251485824585,0.0
830,-0.011921882629394531,-0.9986598491668701,0.0058383941650390625,0.08231067657470703,-0.1414813995361328,0.19399404525756836,-89.23844146728516,0.6839460134506226,0.0,-6.8380351066589355,-1.1784470081329346,4.504360198974609,-89.1143798828125,0.7188256978988647,0.0
836,-0.012654304504394531,-0.9991481304168701,0.014139175415039062,-0.024559497833251953,-0.1414813995361328,0.11765861511230469,-88.91201782226562,0.7255449891090393,0.0,-6.838158130645752,-1.179154396057129,4.504948616027832,-89.11282348632812,0.7181798219680786,0.0
841,-0.015339851379394531,-0.9940211772918701,0.017313003540039062,-0.11616230010986328,-0.004076957702636719,0.2550630569458008,-88.66695404052734,0.8839909434318542,0.0,-6.838855266571045,-1.1791788339614868,4.506478786468506,-89.10982513427734,0.7195276021957397,0.0
846,-0.012166023254394531,-0.9979274272918701,0.008768081665039062,-0.07036113739013672,0.1943964958190918,0.27032995223999023,-89.13905334472656,0.6984479427337646,0.0,-6.839207172393799,-1.1782068014144897,4.507830619812012,-89.11041259765625,0.7203176617622375,0.0
851,-0.013630867004394531,-0.9954860210418701,0.015604019165039062,-0.039826393127441406,-0.06514549255371094,0.4535360336303711,-88.80766296386719,0.7843871712684631,0.0,-6.839406490325928,-1.1785324811935425,4.510098457336426,-89.10811614990234,0.7205216884613037,0.0
856,-0.014851570129394531,-0.9942653179168701,0.0019321441650390625,-0.11616230010986328,-0.2788858413696289,0.3466658592224121,-89.13701629638672,0.855774998664856,0.0,-6.839987277984619,-1.179926872253418,4.511831760406494,-89.10892486572266,0.7202481627464294,0.0
861,-0.013386726379394531,-1.0001246929168701,0.009988784790039062,-0.23829984664916992,-0.12621402740478516,0.636742115020752,-89.043212890625,0.7668232321739197,0.0,-6.841178894042969,-1.1805579662322998,4.515015602111816,-89.10956573486328,0.7200031876564026,0.0
866,-0.013386726379394531,-0.9959743022918701,0.015115737915039062,-0.3146357536315918,-0.20254993438720703,0.056589603424072266,-88.83860778808594,0.7699680924415588,0.0,-6.842751979827881,-1.1815707683563232,4.515298366546631,-89.10891723632812,0.7194063067436218,0.0
871,-0.014119148254394531,-0.9971950054168701,0.0068149566650390625,-0.08562803268432617,-0.1109471321105957,0.33139896392822266,-89.09927368164062,0.8111699819564819,0.0,-6.843180179595947,-1.182125449180603,4.516955375671387,-89.10926055908203,0.7196025848388672,0.0
876,-0.013142585754394531,-0.9967067241668701,0.008279800415039062,-0.024559497833251953,-0.04987812042236328,0.04132270812988281,-89.10713958740234,0.7554329037666321,0.0,-6.843303203582764,-1.1823748350143433,4.517161846160889,-89.10936737060547,0.7196459174156189,0.0
881,-0.010457038879394531,-0.9952418804168701,0.008523941040039062,-0.2535672187805176,0.07225894927978516,0.9573531150817871,-89.22337341308594,0.6019644141197205,0.0,-6.844571113586426,-1.1820135116577148,4.52194881439209,-89.1115493774414,0.7190520763397217,0.0
886,-0.014363288879394531,-0.9969508647918701,0.015604019165039062,-0.05509376525878906,-0.1109471321105957,0.33139896392822266,-88.78132629394531,0.8253146409988403,0.0,-6.844846725463867,-1.1825681924819946,4.523605823516846,-89.1091537475586,0.7193593978881836,0.0
891,-0.012898445129394531,-0.9971950054168701,0.0068149566650390625,-0.1466965675354004,-0.04987812042236328,0.6062078475952148,-89.16187286376953,0.7410466074943542,0.0,-6.845580101013184,-1.1828175783157349,4.526637077331543,-89.11030578613281,0.7192866206169128,0.0
896,-0.013386726379394531,-0.9908473491668701,0.014139175415039062,0.1281123161315918,0.026457786560058594,0.636742115020752,-88.87422943115234,0.7739620208740234,0.0,-6.844939708709717,-1.1826852560043335,4.529820919036865,-89.10777282714844,0.7198567986488342,0.0
901,-0.010212898254394531,-0.9979274272918701,0.008768081665039062,-0.1466965675354004,-0.2178173065185547,0.3924674987792969,-89.22721862792969,0.5863281488418579,0.0,-6.845673084259033,-1.1837743520736694,4.531783103942871,-89.10945892333984,0.7177070379257202,0.0
906,-0.013875007629394531,-0.9947535991668701,0.008035659790039062,-0.10089540481567383,-0.37048912048339844,0.33139896392822266,-89.07655334472656,0.7990942597389221,0.0,-6.846177577972412,-1.185626745223999,4.533440113067627,-89.10969543457031,0.7165195941925049,0.0
911,-0.011189460754394531,-0.9952418804168701,0.013162612915039062,0.05177640914916992,-0.04987812042236328,0.2550630569458008,-89.00553131103516,0.644090473651886,0.0,-6.845918655395508,-1.1858761310577393,4.53471565246582,-89.10860443115234,0.7156949639320374,0.0
916,-0.015583992004394531,-0.9993922710418701,0.011209487915039062,-0.375704288482666,0.08752632141113281,0.5146050453186035,-88.89957427978516,0.8933113813400269,0.0,-6.847797393798828,-1.1854385137557983,4.537288665771484,-89.10880279541016,0.7175411581993103,0.0
921,-0.012654304504394531,-0.9979274272918701,0.013895034790039062,-0.4520401954650879,0.11806058883666992,0.40773487091064453,-88.92108917236328,0.7264347076416016,0.0,-6.850057601928711,-1.1848481893539429,4.539327144622803,-89.10955810546875,0.7181973457336426,0.0
926,-0.008015632629394531,-0.9925563335418701,0.009012222290039062,-0.3451700210571289,-0.17201566696166992,0.1787271499633789,-89.30380249023438,0.4626770317554474,0.0,-6.851783275604248,-1.1857082843780518,4.540220737457275,-89.11280822753906,0.7153222560882568,0.0
931,-0.015095710754394531,-0.9952418804168701,0.017068862915039062,-0.375704288482666,-0.26361894607543945,0.6062078475952148,-88.68841552734375,0.868861198425293,0.0,-6.853662014007568,-1.1870263814926147,4.543251991271973,-89.11132049560547,0.7152265906333923,0.0
936,-0.014607429504394531,-0.9996364116668701,0.012430191040039062,-0.19249820709228516,-0.3399543762207031,0.6672768592834473,-88.9007797241211,0.8371241688728333,0.0,-6.854624271392822,-1.1887261867523193,4.54658842086792,-89.1106185913086,0.7145003080368042,0.0
941,-0.013630867004394531,-0.9945094585418701,0.0058383941650390625,-0.08562803268432617,-0.1414813995361328,0.7588796615600586,-89.14575958251953,0.7852401733398438,0.0,-6.855052471160889,-1.1894335746765137,4.550382614135742,-89.11132049560547,0.7143543362617493,0.0
946,-0.013630867004394531,-0.9942653179168701,0.011697769165039062,-0.26883411407470703,0.11806058883666992,0.5756735801696777,-88.96501922607422,0.785392165184021,0.0,-6.856396675109863,-1.1888432502746582,4.553260803222656,-89.11150360107422,0.7154970169067383,0.0
951,-0.013142585754394531,-0.9959743022918701,0.010965347290039062,-0.08562803268432617,-0.18728303909301758,0.1787271499633789,-89.01544189453125,0.7559686899185181,0.0,-6.85682487487793,-1.1897796392440796,4.554154396057129,-89.11117553710938,0.7148845791816711,0.0
956,-0.010701179504394531,-0.9928004741668701,0.010232925415039062,-0.11616230010986328,0.026457786560058594,0.636742115020752,-89.14556884765625,0.6175220012664795,0.0,-6.857405662536621,-1.1896473169326782,4.557338237762451,-89.11202239990234,0.7142557501792908,0.0
961,-0.01607227325439453,-0.9996364116668701,0.012918472290039062,0.005974769592285156,-0.019343852996826172,0.4840707778930664,-88.81826782226562,0.921052098274231,0.0,-6.857375621795654,-1.189743995666504,4.55975866317749,-89.10970306396484,0.7157706618309021,0.0
966,-0.012654304504394531,-0.9984157085418701,0.0073032379150390625,-0.5741777420043945,-0.2788858413696289,0.07185697555541992,-89.16160583496094,0.7261304259300232,0.0,-6.860246658325195,-1.1911383867263794,4.560117721557617,-89.11295318603516,0.7144675850868225,0.0
971,-0.011921882629394531,-1.0023219585418701,0.0029087066650390625,-0.07036113739013672,-0.08041238784790039,0.4535360336303711,-89.29855346679688,0.6814561486244202,0.0,-6.860598564147949,-1.1915404796600342,4.562385559082031,-89.11473846435547,0.7138125896453857,0.0
976,-0.014607429504394531,-0.9949977397918701,0.0033969879150390625,0.03650951385498047,-0.17201566696166992,0.36193323135375977,-89.13646697998047,0.8410863876342773,0.0,-6.860415935516357,-1.192400574684143,4.564195156097412,-89.1147232055664,0.7139443755149841,0.0
982,-0.011433601379394531,-0.9935328960418701,0.009012222290039062,0.09757804870605469,-0.12621402740478516,0.4535360336303711,-89.16049194335938,0.6593050360679626,0.0,-6.859928131103516,-1.193031668663025,4.566462993621826,-89.11459350585938,0.7128960490226746,0.0
987,-0.013142585754394531,-0.9935328960418701,0.008279800415039062,0.021242141723632812,-0.12621402740478516,0.026055335998535156,-89.10428619384766,0.7578456997871399,0.0,-6.859800815582275,-1.193789005279541,4.566619396209717,-89.11438751220703,0.712492048740387,0.0
992,-0.014363288879394531,-0.9925563335418701,0.0016880035400390625,-0.05509376525878906,-0.04987812042236328,0.2550630569458008,-89.16522216796875,0.8290685415267944,0.0,-6.860076427459717,-1.1940383911132812,4.56789493560791,-89.11505126953125,0.7131438255310059,0.0
997,-0.013875007629394531,-0.9952418804168701,0.008768081665039062,-0.13142967224121094,-0.12621402740478516,0.3924674987792969,-89.05517578125,0.7986973524093628,0.0,-6.860733509063721,-1.194669485092163,4.569857120513916,-89.11524200439453,0.7131761908531189,0.0
1002,-0.014851570129394531,-0.9996364116668701,0.010232925415039062,-0.4520401954650879,-0.40102338790893555,0.5909409523010254,-88.96637725830078,0.8511345982551575,0.0,-6.8629937171936035,-1.1966745853424072,4.572811603546143,-89.11634063720703,0.7122464776039124,0.0
1007,-0.012654304504394531,-0.9969508647918701,0.008279800415039062,0.08231067657470703,-0.12621402740478516,0.6062078475952148,-89.13096618652344,0.7271916270256042,0.0,-6.862582206726074,-1.197305679321289,4.57584285736084,-89.11604309082031,0.7117348313331604,0.0
1012,-0.013630867004394531,-0.9962184429168701,0.016092300415039062,-0.29936838150024414,0.10279369354248047,0.4535360336303711,-88.78726196289062,0.7838045954704285,0.0,-6.864078998565674,-1.1967917680740356,4.578110694885254,-89.1150131225586,0.7127965092658997,0.0
1017,-0.01607227325439453,-0.9993922710418701,0.010477066040039062,-0.43677330017089844,-0.1109471321105957,0.11765861511230469,-88.90021514892578,0.921303391456604,0.0,-6.866262912750244,-1.1973464488983154,4.578699111938477,-89.11553955078125,0.7138389348983765,0.0
1022,-0.014851570129394531,-0.9974391460418701,0.0070590972900390625,-0.5589103698730469,-0.1414813995361328,0.7588796615600586,-89.05550384521484,0.8530325889587402,0.0,-6.869057655334473,-1.1980538368225098,4.582493305206299,-89.11785125732422,0.7141983509063721,0.0
1027,-0.013142585754394531,-0.9957301616668701,0.010965347290039062,-0.29936838150024414,-0.1109471321105957,0.1787271499633789,-89.01520538330078,0.7561540007591248,0.0,-6.870554447174072,-1.1986085176467896,4.5833868980407715,-89.1185531616211,0.7139672040939331,0.0
1032,-0.013386726379394531,-0.9954860210418701,0.009012222290039062,-0.16196393966674805,0.0569920539855957,0.5146050453186035,-89.0712661743164,0.7704028487205505,0.0,-6.871364116668701,-1.1983236074447632,4.5859599113464355,-89.1189956665039,0.7146788239479065,0.0
1037,-0.011433601379394531,-0.9967067241668701,0.010721206665039062,-0.1466965675354004,0.10279369354248047,0.3924674987792969,-89.09906005859375,0.6571947932243347,0.0,-6.872097492218018,-1.1978096961975098,4.587922096252441,-89.11956787109375,0.7147529125213623,0.0
1042,-0.009236335754394531,-0.9942653179168701,0.011453628540039062,0.1586465835571289,-0.4773592948913574,0.49933767318725586,-89.15216064453125,0.5322047472000122,0.0,-6.871304035186768,-1.2001965045928955,4.590418815612793,-89.11902618408203,0.7110021114349365,0.0
1047,-0.012410163879394531,-0.9937770366668701,0.012918472290039062,-0.024559497833251953,-0.2178173065185547,0.46880340576171875,-88.9673080444336,0.7154049277305603,0.0,-6.871427059173584,-1.2012856006622314,4.5927629470825195,-89.11800384521484,0.7099545001983643,0.0
1052,-0.014363288879394531,-0.9959743022918701,0.0051059722900390625,-0.39097166061401367,0.17912960052490234,0.7741470336914062,-89.12313079833984,0.826214075088501,0.0,-6.873382091522217,-1.2003899812698364,4.5966339111328125,-89.11997985839844,0.7117205262184143,0.0
1057,-0.011921882629394531,-0.9957301616668701,0.009012222290039062,-0.05509376525878906,0.04172468185424805,0.529871940612793,-89.1401138305664,0.6859418153762817,0.0,-6.873657703399658,-1.2001813650131226,4.599283218383789,-89.12040710449219,0.7117334008216858,0.0
1062,-0.009968757629394531,-0.9962184429168701,0.0046176910400390625,-0.1772313117980957,-0.03461122512817383,0.49933767318725586,-89.3681640625,0.5733105540275574,0.0,-6.8745436668396,-1.2003544569015503,4.601779937744141,-89.1231460571289,0.7105207443237305,0.0
1067,-0.014119148254394531,-1.0003688335418701,0.012430191040039062,-0.10089540481567383,-0.3857560157775879,0.423001766204834,-88.92272186279297,0.8085532188415527,0.0,-6.8750481605529785,-1.202283263206482,4.6038947105407715,-89.12213897705078,0.709342360496521,0.0
1072,-0.014607429504394531,-0.9915797710418701,0.010721206665039062,-0.1466965675354004,0.1943964958190918,0.36193323135375977,-88.953125,0.843940794467926,0.0,-6.875781536102295,-1.2013112306594849,4.605704307556152,-89.12159729003906,0.7113158702850342,0.0
1077,-0.013142585754394531,-0.9937770366668701,0.011209487915039062,-0.5283761024475098,-0.1109471321105957,0.4535360336303711,-89.00419616699219,0.7576376795768738,0.0,-6.87842321395874,-1.2018659114837646,4.607972145080566,-89.12333679199219,0.7111119031906128,0.0
1082,-0.01753711700439453,-0.9962184429168701,0.0014438629150390625,-0.009292125701904297,-0.04987812042236328,0.636742115020752,-88.98807525634766,1.0085116624832153,0.0,-6.878469467163086,-1.2021152973175049,4.611155986785889,-89.12236785888672,0.7130863666534424,0.0
1087,-0.008015632629394531,-0.9940211772918701,0.0058383941650390625,-0.024559497833251953,-0.04987812042236328,0.36193323135375977,-89.42842864990234,0.4620063006877899,0.0,-6.878592491149902,-1.2023646831512451,4.6129655838012695,-89.12477111816406,0.7109658122062683,0.0
1092,-0.011921882629394531,-0.9969508647918701,0.009012222290039062,-0.2535672187805176,0.27073240280151367,0.1481928825378418,-89.14116668701172,0.6851020455360413,0.0,-6.8798604011535645,-1.201011061668396,4.613706588745117,-89.12615203857422,0.7121167778968811,0.0
1097,-0.011677742004394531,-0.9974391460418701,0.010965347290039062,-0.29936838150024414,-0.2178173065185547,0.36193323135375977,-89.07990264892578,0.6707319617271423,0.0,-6.881357192993164,-1.202100157737732,4.615516185760498,-89.12728881835938,0.7107279896736145,0.0
1102,-0.011433601379394531,-0.9979274272918701,0.0048618316650390625,-0.024559497833251953,-0.004076957702636719,0.2855973243713379,-89.28669738769531,0.6564211249351501,0.0,-6.8814802169799805,-1.2021205425262451,4.616944313049316,-89.12859344482422,0.7103044986724854,0.0
1107,-0.013875007629394531,-0.9986598491668701,0.015115737915039062,-0.32990312576293945,-0.04987812042236328,0.43826913833618164,-88.8229751586914,0.7959038019180298,0.0,-6.883129596710205,-1.2023699283599854,4.619135856628418,-89.12796020507812,0.7106916904449463,0.0
1112,-0.010945320129394531,-0.9954860210418701,0.009500503540039062,-0.009292125701904297,-0.04987812042236328,0.5604066848754883,-89.16587829589844,0.6299102306365967,0.0,-6.883175849914551,-1.2026193141937256,4.6219377517700195,-89.12828826904297,0.709846019744873,0.0
1117,-0.012654304504394531,-0.9976832866668701,0.008768081665039062,-0.009292125701904297,-0.1414813995361328,0.3772001266479492,-89.1159439086914,0.7266548275947571,0.0,-6.8832221031188965,-1.20332670211792,4.623823642730713,-89.12824249267578,0.7092681527137756,0.0
1122,-0.012898445129394531,-0.9945094585418701,0.0077915191650390625,-0.22303247451782227,-0.309420108795166,0.19399404525756836,-89.13190460205078,0.7430420517921448,0.0,-6.884337425231934,-1.20487380027771,4.624793529510498,-89.1293716430664,0.7079818248748779,0.0
1127,-0.014119148254394531,-0.9920680522918701,0.016092300415039062,-0.22303247451782227,-0.019343852996826172,0.5756735801696777,-88.76378631591797,0.8152732849121094,0.0,-6.885452747344971,-1.2049704790115356,4.627671718597412,-89.1277847290039,0.708676815032959,0.0
1133,-0.012654304504394531,-0.9945094585418701,0.008035659790039062,-0.2535672187805176,-0.26361894607543945,0.2855973243713379,-89.1364517211914,0.7289779186248779,0.0,-6.886720657348633,-1.2062885761260986,4.6290998458862305,-89.12910461425781,0.7075179219245911,0.0
1138,-0.01656055450439453,-0.9979274272918701,0.019754409790039062,-0.2841014862060547,-0.5536952018737793,0.20926141738891602,-88.52030944824219,0.9505470395088196,0.0,-6.888425350189209,-1.2096107006072998,4.630355358123779,-89.12630462646484,0.7060118317604065,0.0
1143,-0.010701179504394531,-0.9918239116668701,0.0075473785400390625,-0.4215059280395508,-0.6605653762817383,0.07185697555541992,-89.24357604980469,0.6181448698043823,0.0,-6.890532970428467,-1.2129135131835938,4.630714416503906,-89.12925720214844,0.7020865082740784,0.0
1148,-0.012654304504394531,-0.9971950054168701,0.0024204254150390625,-0.1772313117980957,-0.1109471321105957,0.4840707778930664,-89.25978088378906,0.7270365357398987,0.0,-6.891418933868408,-1.2134681940078735,4.633134841918945,-89.13109588623047,0.7017192840576172,0.0
1153,-0.010945320129394531,-0.9986598491668701,0.011697769165039062,-0.4215059280395508,0.04172468185424805,0.1481928825378418,-89.08097076416016,0.6278939843177795,0.0,-6.893526554107666,-1.2132595777511597,4.633875846862793,-89.13282012939453,0.7013843655586243,0.0
1158,-0.007771492004394531,-0.9957301616668701,-0.0005092620849609375,-0.2841014862060547,-0.04987812042236328,0.19399404525756836,-89.55186462402344,0.44717395305633545,0.0,-6.894947052001953,-1.2135089635849,4.634845733642578,-89.13729858398438,0.699272871017456,0.0
1163,-0.012898445129394531,-0.9954860210418701,0.008279800415039062,-0.1772313117980957,-0.004076957702636719,0.43826913833618164,-89.1178970336914,0.7423103451728821,0.0,-6.8958330154418945,-1.213529348373413,4.63703727722168,-89.1380386352539,0.6995677947998047,0.0
1168,-0.015583992004394531,-0.9952418804168701,0.008279800415039062,0.03650951385498047,-0.309420108795166,0.7283453941345215,-88.98417663574219,0.8970614671707153,0.0,-6.895650386810303,-1.2150764465332031,4.640678882598877,-89.13673400878906,0.6994763016700745,0.0
1173,-0.014363288879394531,-0.9949977397918701,0.008279800415039062,-0.05509376525878906,-0.18728303909301758,0.3772001266479492,-89.04541015625,0.8270071148872375,0.0,-6.895925998687744,-1.2160128355026245,4.64256477355957,-89.13633728027344,0.6994782090187073,0.0
1178,-0.012166023254394531,-0.9925563335418701,0.0073032379150390625,-0.039826393127441406,-0.03461122512817383,0.7894139289855957,-89.18094635009766,0.702235221862793,0.0,-6.896125316619873,-1.2161859273910522,4.646512031555176,-89.13685607910156,0.6993265748023987,0.0
1183,-0.013386726379394531,-0.9957301616668701,0.011209487915039062,-0.19249820709228516,-0.04987812042236328,0.40773487091064453,-88.99542236328125,0.7701967358589172,0.0,-6.897087574005127,-1.2164353132247925,4.648550510406494,-89.13677978515625,0.6995953321456909,0.0
1188,-0.013386726379394531,-0.9957301616668701,0.0073032379150390625,-0.2841014862060547,-0.019343852996826172,0.23979568481445312,-89.12259674072266,0.7702248096466064,0.0,-6.898508071899414,-1.2165319919586182,4.649749279022217,-89.1380844116211,0.700013279914856,0.0
1193,-0.011433601379394531,-0.9957301616668701,0.008768081665039062,-0.039826393127441406,0.04172468185424805,0.423001766204834,-89.17096710205078,0.6578518152236938,0.0,-6.898707389831543,-1.2163233757019043,4.651864051818848,-89.13851928710938,0.6999139785766602,0.0
1198,-0.012410163879394531,-0.9981715679168701,0.0033969879150390625,-0.3451700210571289,-0.37048912048339844,0.40773487091064453,-89.26148223876953,0.7123116850852966,0.0,-6.90043306350708,-1.2181757688522339,4.653902530670166,-89.14112091064453,0.6981649994850159,0.0
1203,-0.011921882629394531,-0.9998805522918701,0.0075473785400390625,-0.23829984664916992,-0.46209192276000977,0.1787271499633789,-89.19151306152344,0.6831033229827881,0.0,-6.90162467956543,-1.2204862833023071,4.654796123504639,-89.14266967773438,0.6957620978355408,0.0
1208,-0.010212898254394531,-0.9942653179168701,0.0077915191650390625,-0.36043739318847656,0.2249307632446289,0.5909409523010254,-89.25979614257812,0.588492214679718,0.0,-6.903426647186279,-1.219361662864685,4.657750606536865,-89.14530181884766,0.696101725101471,0.0
1213,-0.011921882629394531,-1.0015895366668701,0.0051059722900390625,-0.16196393966674805,0.13332796096801758,0.5909409523010254,-89.25813293457031,0.6819484233856201,0.0,-6.904236316680908,-1.218695044517517,4.660705089569092,-89.14691925048828,0.696661114692688,0.0
1218,-0.01802539825439453,-0.9957301616668701,0.012430191040039062,0.021242141723632812,-0.06514549255371094,0.2855973243713379,-88.74028778076172,1.0370138883590698,0.0,-6.904129981994629,-1.2190207242965698,4.66213321685791,-89.14387512207031,0.6987971067428589,0.0
1223,-0.012410163879394531,-0.9937770366668701,0.014383316040039062,-0.22303247451782227,-0.06514549255371094,0.5451393127441406,-88.90486145019531,0.7153904438018799,0.0,-6.905245304107666,-1.2193464040756226,4.664858818054199,-89.14325714111328,0.6985934972763062,0.0
1228,-0.01607227325439453,-0.9908473491668701,0.008279800415039062,-0.2077655792236328,-0.004076957702636719,0.2550630569458008,-88.95465850830078,0.9292657971382141,0.0,-6.906284332275391,-1.2193667888641357,4.666134357452393,-89.14292907714844,0.700236439704895,0.0
1233,-0.01656055450439453,-0.9979274272918701,0.0021762847900390625,-0.1772313117980957,-0.004076957702636719,0.43826913833618164,-89.04109191894531,0.9507309794425964,0.0,-6.907170295715332,-1.219387173652649,4.668325901031494,-89.14307403564453,0.7020203471183777,0.0
1238,-0.014607429504394531,-0.9942653179168701,0.014139175415039062,0.021242141723632812,-0.23308420181274414,0.46880340576171875,-88.82864379882812,0.8416256904602051,0.0,-6.907063961029053,-1.2205525636672974,4.670670032501221,-89.14070892333984,0.7018676996231079,0.0
1243,-0.011921882629394531,-0.9925563335418701,0.011453628540039062,-0.375704288482666,-0.40102338790893555,0.20926141738891602,-89.0457534790039,0.6881173849105835,0.0,-6.908942699432373,-1.2225576639175415,4.671716213226318,-89.14189147949219,0.6997781991958618,0.0
1248,-0.015339851379394531,-0.9984157085418701,0.0051059722900390625,0.08231067657470703,-0.32468748092651367,0.4840707778930664,-89.07229614257812,0.8802226185798645,0.0,-6.908531188964844,-1.224181056022644,4.674136638641357,-89.14098358154297,0.6994619369506836,0.0
1253,-0.010945320129394531,-0.9940211772918701,0.0053501129150390625,-0.43677330017089844,0.10279369354248047,0.20926141738891602,-89.29780578613281,0.6308580040931702,0.0,-6.910715103149414,-1.2236671447753906,4.675182819366455,-89.14427185058594,0.6994801759719849,0.0
1258,-0.01656055450439453,-0.9959743022918701,0.012674331665039062,-0.2841014862060547,0.011190414428710938,0.22452878952026367,-88.80049896240234,0.9525201916694641,0.0,-6.912135601043701,-1.2236112356185913,4.676305294036865,-89.14321899414062,0.7013487815856934,0.0
1263,-0.015095710754394531,-0.9981715679168701,0.011209487915039062,-0.11616230010986328,0.011190414428710938,0.4840707778930664,-88.92085266113281,0.8663842082023621,0.0,-6.912716388702393,-1.223555326461792,4.678725719451904,-89.14220428466797,0.7025856375694275,0.0
1268,-0.01631641387939453,-1.0011012554168701,0.011697769165039062,-0.1772313117980957,0.07225894927978516,0.36193323135375977,-88.85112762451172,0.9336868524551392,0.0,-6.913602352142334,-1.2231940031051636,4.680535316467285,-89.14099884033203,0.7045969367027283,0.0
1273,-0.009724617004394531,-0.9949977397918701,0.008768081665039062,-0.23829984664916992,0.04172468185424805,0.49933767318725586,-89.24605560302734,0.5599411129951477,0.0,-6.914793968200684,-1.2229853868484497,4.683032035827637,-89.14292907714844,0.7037706971168518,0.0
1279,-0.012654304504394531,-0.9969508647918701,0.012186050415039062,-0.039826393127441406,0.07225894927978516,0.5909409523010254,-88.9904556274414,0.7271623611450195,0.0,-6.9149932861328125,-1.2226240634918213,4.685986518859863,-89.14203643798828,0.7042964100837708,0.0
1284,-0.012410163879394531,-0.9962184429168701,0.012918472290039062,-0.19249820709228516,-0.06514549255371094,0.7741470336914062,-88.96984100341797,0.7136521935462952,0.0,-6.9161481857299805,-1.2230149507522583,4.69063138961792,-89.14195251464844,0.7039752006530762,0.0
1289,-0.013630867004394531,-0.9928004741668701,0.0075473785400390625,-0.5436434745788574,-0.03461122512817383,0.5909409523010254,-89.10088348388672,0.7865825295448303,0.0,-6.9188666343688965,-1.223188042640686,4.6935858726501465,-89.14435577392578,0.7043934464454651,0.0
1294,-0.014851570129394531,-0.9942653179168701,0.012186050415039062,-0.10089540481567383,-0.20254993438720703,0.33139896392822266,-88.89307403564453,0.855712354183197,0.0,-6.919371128082275,-1.2242008447647095,4.695242881774902,-89.14306640625,0.7044677138328552,0.0
1299,-0.013142585754394531,-0.9986598491668701,0.011453628540039062,0.005974769592285156,-0.3552217483520508,0.316131591796875,-88.99991607666016,0.7539321184158325,0.0,-6.919341087341309,-1.2259769439697266,4.696823596954346,-89.14201354980469,0.7030569314956665,0.0
1304,-0.012410163879394531,-0.9971950054168701,0.0033969879150390625,-0.039826393127441406,-0.1414813995361328,0.423001766204834,-89.26075744628906,0.7130091786384583,0.0,-6.9195404052734375,-1.226684331893921,4.698938369750977,-89.14305877685547,0.702425479888916,0.0
1309,-0.009724617004394531,-0.9918239116668701,0.012674331665039062,-0.19249820709228516,0.2249307632446289,0.3772001266479492,-89.07722473144531,0.5617087483406067,0.0,-6.920502662658691,-1.2255597114562988,4.70082426071167,-89.14354705810547,0.7025408744812012,0.0
1314,-0.014119148254394531,-0.9925563335418701,0.0073032379150390625,-0.375704288482666,-0.26361894607543945,0.46880340576171875,-89.08246612548828,0.8149574398994446,0.0,-6.922381401062012,-1.2268778085708618,4.7031683921813965,-89.14497375488281,0.7020313143730164,0.0
1319,-0.01753711700439453,-0.9947535991668701,0.0058383941650390625,-0.3146357536315918,-0.29415321350097656,0.27032995223999023,-88.93551635742188,1.0099802017211914,0.0,-6.923954486846924,-1.2283486127853394,4.704520225524902,-89.14505004882812,0.7027583122253418,0.0
1324,-0.014851570129394531,-0.9969508647918701,0.0077915191650390625,-0.23829984664916992,-0.15674829483032227,0.19399404525756836,-89.03622436523438,0.8534456491470337,0.0,-6.925146102905273,-1.2291322946548462,4.7054901123046875,-89.14546203613281,0.7030494809150696,0.0
1329,-0.010701179504394531,-1.0001246929168701,0.010477066040039062,-0.07036113739013672,0.08752632141113281,0.07185697555541992,-89.14210510253906,0.6129989624023438,0.0,-6.925498008728027,-1.2286946773529053,4.7058491706848145,-89.14579010009766,0.7028455138206482,0.0
1334,-0.013386726379394531,-0.9986598491668701,0.014871597290039062,-0.039826393127441406,-0.1109471321105957,0.11765861511230469,-88.8521728515625,0.7679010629653931,0.0,-6.925697326660156,-1.229249358177185,4.706437587738037,-89.14390563964844,0.7027555704116821,0.0
1339,-0.010457038879394531,-0.9942653179168701,0.012186050415039062,-0.08562803268432617,-0.26361894607543945,0.49933767318725586,-89.07473754882812,0.6025324463844299,0.0,-6.926125526428223,-1.230567455291748,4.708934307098389,-89.14383697509766,0.7007374167442322,0.0
1344,-0.015339851379394531,-0.9967067241668701,0.0046176910400390625,-0.23829984664916992,-0.2483515739440918,0.36193323135375977,-89.07917785644531,0.8817337155342102,0.0,-6.927317142486572,-1.2318092584609985,4.7107439041137695,-89.14456176757812,0.7007845044136047,0.0
1349,-0.015095710754394531,-0.9959743022918701,0.0051059722900390625,-0.29936838150024414,0.07225894927978516,0.3466658592224121,-89.08332824707031,0.8683385848999023,0.0,-6.928813934326172,-1.2314479351043701,4.712477207183838,-89.14561462402344,0.702327311038971,0.0
1354,-0.013142585754394531,-0.9959743022918701,0.0055942535400390625,-0.19249820709228516,0.011190414428710938,0.636742115020752,-89.17835235595703,0.7560025453567505,0.0,-6.929776191711426,-1.2313920259475708,4.71566104888916,-89.14679718017578,0.7027618885040283,0.0
1359,-0.012166023254394531,-0.9969508647918701,0.017068862915039062,-0.2535672187805176,-0.019343852996826172,0.2855973243713379,-88.7955322265625,0.6990565657615662,0.0,-6.931044101715088,-1.2314887046813965,4.7170891761779785,-89.14557647705078,0.7026396989822388,0.0
1364,-0.010457038879394531,-0.9998805522918701,0.0070590972900390625,0.1281123161315918,-0.2483515739440918,0.36193323135375977,-89.27706909179688,0.5991789698600769,0.0,-6.930403709411621,-1.232730507850647,4.718898773193359,-89.14586639404297,0.7006773948669434,0.0
1369,-0.011433601379394531,-0.9942653179168701,0.0063266754150390625,-0.2841014862060547,-0.004076957702636719,0.3924674987792969,-89.24702453613281,0.6588331460952759,0.0,-6.931824207305908,-1.2327508926391602,4.720860958099365,-89.14798736572266,0.7003623843193054,0.0
1374,-0.012654304504394531,-0.9940211772918701,0.013162612915039062,-0.19249820709228516,-0.2178173065185547,0.5451393127441406,-88.94766998291016,0.7292958498001099,0.0,-6.932786464691162,-1.233839988708496,4.723586559295654,-89.14752960205078,0.6994845867156982,0.0
1379,-0.014607429504394531,-0.9974391460418701,0.014139175415039062,-0.2841014862060547,-0.1109471321105957,0.423001766204834,-88.83236694335938,0.8389486074447632,0.0,-6.934206962585449,-1.2343946695327759,4.725701332092285,-89.14672088623047,0.6999146342277527,0.0
1384,-0.013630867004394531,-0.9937770366668701,0.0029087066650390625,-0.07036113739013672,-0.18728303909301758,0.27032995223999023,-89.19647979736328,0.7858290076255798,0.0,-6.934558868408203,-1.2353310585021973,4.727053165435791,-89.14742279052734,0.6995885968208313,0.0
1389,-0.01582813262939453,-0.9967067241668701,0.009500503540039062,-0.1772313117980957,-0.26361894607543945,0.3924674987792969,-88.93891906738281,0.9097638726234436,0.0,-6.9354448318481445,-1.2366491556167603,4.729015350341797,-89.14683532714844,0.6997557282447815,0.0
1394,-0.012166023254394531,-0.9957301616668701,0.0070590972900390625,-0.2077655792236328,0.011190414428710938,0.8657498359680176,-89.1906967163086,0.6999984979629517,0.0,-6.936483860015869,-1.236593246459961,4.733344078063965,-89.1481704711914,0.6998130083084106,0.0
1399,-0.013386726379394531,-0.9949977397918701,0.0065708160400390625,-0.22303247451782227,-0.1109471321105957,0.30086469650268555,-89.14134979248047,0.7707956433296204,0.0,-6.937599182128906,-1.2371479272842407,4.734848499298096,-89.14923095703125,0.6997599005699158,0.0
1404,-0.013875007629394531,-0.9937770366668701,0.0068149566650390625,-0.22303247451782227,0.24019813537597656,0.636742115020752,-89.10883331298828,0.7998867034912109,0.0,-6.938714504241943,-1.2359468936920166,4.738032341003418,-89.15005493164062,0.7016540765762329,0.0
1409,-0.010457038879394531,-0.9910914897918701,0.0070590972900390625,-0.009292125701904297,0.04172468185424805,0.529871940612793,-89.27066040039062,0.6044918894767761,0.0,-6.938760757446289,-1.2357382774353027,4.7406816482543945,-89.15094757080078,0.7011808753013611,0.0
1414,-0.012410163879394531,-0.9937770366668701,0.008279800415039062,-0.32990312576293945,-0.2788858413696289,0.20926141738891602,-89.13993072509766,0.7154405117034912,0.0,-6.940410137176514,-1.2371326684951782,4.741727828979492,-89.15250396728516,0.699895977973938,0.0
1419,-0.013630867004394531,-0.9908473491668701,0.0075473785400390625,-0.13142967224121094,-0.29415321350097656,0.10239124298095703,-89.09911346435547,0.7881327271461487,0.0,-6.941067218780518,-1.2386034727096558,4.742239952087402,-89.15277862548828,0.6990525126457214,0.0
1424,-0.014851570129394531,-0.9967067241668701,0.0041294097900390625,-0.4062385559082031,-0.17201566696166992,0.3466658592224121,-89.11393737792969,0.8536733984947205,0.0,-6.943098545074463,-1.2394635677337646,4.743973255157471,-89.15452575683594,0.6992789506912231,0.0
1430,-0.015339851379394531,-0.9928004741668701,0.011453628540039062,-0.08562803268432617,-0.32468748092651367,0.1787271499633789,-88.89530944824219,0.8851529955863953,0.0,-6.943612098693848,-1.2414116859436035,4.7450456619262695,-89.1532211303711,0.698646068572998,0.0
1435,-0.012898445129394531,-0.9945094585418701,0.010477066040039062,-0.10089540481567383,0.37760257720947266,0.46880340576171875,-89.042724609375,0.7430236339569092,0.0,-6.944116592407227,-1.2395236492156982,4.747389793395996,-89.15294647216797,0.700831413269043,0.0
1440,-0.012410163879394531,-0.9959743022918701,0.0036411285400390625,-0.1466965675354004,-0.2788858413696289,0.19399404525756836,-89.25602722167969,0.713882327079773,0.0,-6.944849967956543,-1.2409180402755737,4.748359680175781,-89.1543960571289,0.699537992477417,0.0
1445,-0.012654304504394531,-0.9998805522918701,0.0048618316650390625,0.1586465835571289,0.07225894927978516,0.4535360336303711,-89.2232437133789,0.7250775694847107,0.0,-6.944056510925293,-1.2405567169189453,4.750627517700195,-89.15409088134766,0.7000752687454224,0.0
1450,-0.010701179504394531,-1.0001246929168701,0.011209487915039062,-0.10089540481567383,-0.1414813995361328,0.6214752197265625,-89.11225128173828,0.6129940748214722,0.0,-6.944561004638672,-1.2412641048431396,4.753735065460205,-89.154296875,0.6987646818161011,0.0
1455,-0.008748054504394531,-0.9959743022918701,0.009500503540039062,0.1281123161315918,-0.1109471321105957,0.6825437545776367,-89.25709533691406,0.5032166838645935,0.0,-6.943920612335205,-1.2418187856674194,4.757147789001465,-89.15438079833984,0.6968491077423096,0.0
1460,-0.014119148254394531,-0.9979274272918701,0.009012222290039062,-0.3451700210571289,0.0569920539855957,0.43826913833618164,-89.03837585449219,0.8105605840682983,0.0,-6.945646286010742,-1.241533875465393,4.759339332580566,-89.15528106689453,0.6979251503944397,0.0
1465,-0.011677742004394531,-0.9925563335418701,0.011941909790039062,-0.16196393966674805,0.13332796096801758,0.6825437545776367,-89.03591918945312,0.6740232706069946,0.0,-6.946455955505371,-1.240867257118225,4.762752056121826,-89.1552505493164,0.698420524597168,0.0
1470,-0.01582813262939453,-0.9962184429168701,0.013162612915039062,-0.2841014862060547,0.13332796096801758,0.3924674987792969,-88.81620025634766,0.910171627998352,0.0,-6.947876453399658,-1.2402006387710571,4.764714241027832,-89.154296875,0.7005574703216553,0.0
1475,-0.014851570129394531,-0.9964625835418701,0.016580581665039062,-0.05509376525878906,0.24019813537597656,0.1481928825378418,-88.7203140258789,0.8537716865539551,0.0,-6.9481520652771,-1.238999605178833,4.76545524597168,-89.15155029296875,0.7028166651725769,0.0
1480,-0.01704883575439453,-0.9942653179168701,0.009988784790039062,-0.5741777420043945,-0.2178173065185547,0.4535360336303711,-88.86148071289062,0.9823145866394043,0.0,-6.951023101806641,-1.240088701248169,4.767723083496094,-89.15238189697266,0.7036795616149902,0.0
1485,-0.013386726379394531,-0.9937770366668701,0.008768081665039062,-0.2841014862060547,-0.26361894607543945,0.316131591796875,-89.07745361328125,0.7717291116714478,0.0,-6.952443599700928,-1.241406798362732,4.769303798675537,-89.15326690673828,0.7028437256813049,0.0
1490,-0.010457038879394531,-0.9959743022918701,0.016336441040039062,-0.36043739318847656,-0.37048912048339844,0.07185697555541992,-88.88430786132812,0.6014629006385803,0.0,-6.954245567321777,-1.2432591915130615,4.769662857055664,-89.15318298339844,0.7002996802330017,0.0
1495,-0.008503913879394531,-0.9996364116668701,0.009988784790039062,-0.19249820709228516,-0.1414813995361328,0.6062078475952148,-89.24813842773438,0.4873794913291931,0.0,-6.955207824707031,-1.2439665794372559,4.772694110870361,-89.15480041503906,0.6981186270713806,0.0
1500,-0.014607429504394531,-0.9979274272918701,0.0053501129150390625,-0.22303247451782227,0.28599977493286133,0.13292551040649414,-89.10690307617188,0.8386103510856628,0.0,-6.956323146820068,-1.2425365447998047,4.7733588218688965,-89.15557098388672,0.7005137205123901,0.0
1505,-0.015339851379394531,-0.9954860210418701,0.0009555816650390625,-0.05509376525878906,-0.1109471321105957,0.8962841033935547,-89.11546325683594,0.8828238248825073,0.0,-6.95659875869751,-1.2430912256240845,4.7778401374816895,-89.15556335449219,0.7012273669242859,0.0
1510,-0.011189460754394531,-0.9986598491668701,0.014627456665039062,-0.1772313117980957,-0.43155765533447266,0.7283453941345215,-88.94351959228516,0.6418734788894653,0.0,-6.957484722137451,-1.2452490329742432,4.781481742858887,-89.15497589111328,0.6986730694770813,0.0
1515,-0.011677742004394531,-0.9991481304168701,0.0077915191650390625,-0.3146357536315918,-0.2483515739440918,0.40773487091064453,-89.19502258300781,0.6696049571037292,0.0,-6.959057807922363,-1.2464908361434937,4.783520221710205,-89.15681457519531,0.6972385048866272,0.0
1520,-0.012410163879394531,-0.9957301616668701,0.013650894165039062,0.06704378128051758,-0.019343852996826172,0.43826913833618164,-88.93854522705078,0.7139950394630432,0.0,-6.9587225914001465,-1.2465875148773193,4.785711765289307,-89.15496826171875,0.697258472442627,0.0
1525,-0.013875007629394531,-0.9986598491668701,0.012186050415039062,0.03650951385498047,0.07225894927978516,0.1481928825378418,-88.94064331054688,0.7959357500076294,0.0,-6.958539962768555,-1.246226191520691,4.786452770233154,-89.15330505371094,0.6983002424240112,0.0
1530,-0.015583992004394531,-0.9945094585418701,0.013406753540039062,-0.10089540481567383,-0.23308420181274414,0.3772001266479492,-88.8158187866211,0.8976715207099915,0.0,-6.959044456481934,-1.2473915815353394,4.788338661193848,-89.15147399902344,0.6985219120979309,0.0
1535,-0.013142585754394531,-0.9979274272918701,0.012186050415039062,-0.4520401954650879,-0.06514549255371094,0.2855973243713379,-88.97107696533203,0.7544787526130676,0.0,-6.961304664611816,-1.247717261314392,4.789766788482666,-89.1524658203125,0.6985852718353271,0.0
1540,-0.011433601379394531,-0.9923121929168701,0.009012222290039062,0.06704378128051758,-0.2178173065185547,0.423001766204834,-89.15946197509766,0.6601159572601318,0.0,-6.9609694480896,-1.248806357383728,4.791881561279297,-89.15218353271484,0.6972379088401794,0.0
1545,-0.015339851379394531,-0.9930446147918701,0.0060825347900390625,-0.5131092071533203,-0.3399543762207031,0.27032995223999023,-89.04798126220703,0.8849776983261108,0.0,-6.963534832000732,-1.2505061626434326,4.793233394622803,-89.15400695800781,0.6968464851379395,0.0
1550,-0.011921882629394531,-0.9954860210418701,0.016824722290039062,-0.2535672187805176,-0.32468748092651367,0.11765861511230469,-88.81334686279297,0.6860401630401611,0.0,-6.9648027420043945,-1.2521295547485352,4.793821811676025,-89.15291595458984,0.6951596736907959,0.0
1555,-0.013386726379394531,-0.9971950054168701,0.008279800415039062,-0.08562803268432617,-0.29415321350097656,0.2550630569458008,-89.0956802368164,0.7690877318382263,0.0,-6.965230941772461,-1.2536003589630127,4.795097351074219,-89.15294647216797,0.694209098815918,0.0
1560,-0.01607227325439453,-1.0015895366668701,0.009256362915039062,-0.32990312576293945,-0.09567975997924805,0.3924674987792969,-88.93913269042969,0.9192938208580017,0.0,-6.9668803215026855,-1.25407874584198,4.797059535980225,-89.15310668945312,0.6952861547470093,0.0
1565,-0.011921882629394531,-0.9930446147918701,0.009744644165039062,-0.009292125701904297,0.08752632141113281,0.3924674987792969,-89.1116714477539,0.6877917051315308,0.0,-6.966926574707031,-1.253641128540039,4.7990217208862305,-89.15287017822266,0.6956691145896912,0.0
1570,-0.014607429504394531,-0.9979274272918701,0.0077915191650390625,-0.4215059280395508,-0.2788858413696289,0.3772001266479492,-89.04955291748047,0.8385968208312988,0.0,-6.969034194946289,-1.2550355195999146,4.800907611846924,-89.15425109863281,0.6952689290046692,0.0
1576,-0.012166023254394531,-0.9964625835418701,0.010721206665039062,-0.1772313117980957,0.011190414428710938,0.6825437545776367,-89.06768035888672,0.6994611024856567,0.0,-6.9699201583862305,-1.2549796104431152,4.804320335388184,-89.15453338623047,0.6953533887863159,0.0
1581,-0.013386726379394531,-0.9957301616668701,0.0065708160400390625,0.23498249053955078,0.026457786560058594,0.7741470336914062,-89.14198303222656,0.7702287435531616,0.0,-6.968510150909424,-1.2548208236694336,4.80896520614624,-89.15304565429688,0.6960278153419495,0.0
1586,-0.010457038879394531,-0.9989039897918701,0.0058383941650390625,-0.26883411407470703,-0.12621402740478516,0.5451393127441406,-89.31307983398438,0.5997694134712219,0.0,-6.969854354858398,-1.2554519176483154,4.811690807342529,-89.15547943115234,0.6947370767593384,0.0
1591,-0.014119148254394531,-0.9940211772918701,0.0068149566650390625,-0.16196393966674805,-0.18728303909301758,0.4840707778930664,-89.09639739990234,0.8137595057487488,0.0,-6.970664024353027,-1.2563883066177368,4.814111232757568,-89.15587615966797,0.6946277618408203,0.0
1596,-0.014851570129394531,-0.9949977397918701,0.009012222290039062,-0.05509376525878906,-0.2178173065185547,0.7588796615600586,-88.99974822998047,0.8551117181777954,0.0,-6.970939636230469,-1.2574774026870728,4.817905426025391,-89.15507507324219,0.6946521401405334,0.0
1601,-0.012410163879394531,-0.9935328960418701,0.009744644165039062,-0.19249820709228516,-0.1414813995361328,0.49933767318725586,-89.09013366699219,0.7156067490577698,0.0,-6.971901893615723,-1.258184790611267,4.820402145385742,-89.15558624267578,0.6940939426422119,0.0
1606,-0.012166023254394531,-0.9945094585418701,0.0055942535400390625,0.08231067657470703,-0.2178173065185547,0.1787271499633789,-89.22858428955078,0.7008641362190247,0.0,-6.971490383148193,-1.259273886680603,4.821295738220215,-89.15567779541016,0.693058967590332,0.0
1611,-0.014607429504394531,-0.9952418804168701,0.013895034790039062,-0.29936838150024414,0.2249307632446289,0.19399404525756836,-88.83952331542969,0.8408030867576599,0.0,-6.972987174987793,-1.258149266242981,4.822265625,-89.15498352050781,0.6951926350593567,0.0
1616,-0.010457038879394531,-0.9971950054168701,0.0075473785400390625,0.08231067657470703,-0.1109471321105957,0.30086469650268555,-89.25906372070312,0.60079026222229,0.0,-6.972575664520264,-1.2587039470672607,4.823770046234131,-89.15528869628906,0.6939923763275146,0.0
1621,-0.010212898254394531,-0.9957301616668701,0.013895034790039062,-0.039826393127441406,-0.3399543762207031,0.11765861511230469,-89.00782012939453,0.5875874161720276,0.0,-6.972774982452393,-1.2604037523269653,4.8243584632873535,-89.15447235107422,0.6915727257728577,0.0
1626,-0.009480476379394531,-1.0003688335418701,0.0021762847900390625,-0.6199793815612793,-0.2178173065185547,0.529871940612793,-89.44290161132812,0.5429734587669373,0.0,-6.975874900817871,-1.2614928483963013,4.82700777053833,-89.15953063964844,0.6894699335098267,0.0
1631,-0.010212898254394531,-0.9981715679168701,0.0046176910400390625,-0.375704288482666,-0.20254993438720703,0.6672768592834473,-89.35665893554688,0.5862011313438416,0.0,-6.977753639221191,-1.2625056505203247,4.830344200134277,-89.16275024414062,0.6877548098564148,0.0
1636,-0.014119148254394531,-0.9942653179168701,0.0051059722900390625,-0.08562803268432617,-0.46209192276000977,0.10239124298095703,-89.1348648071289,0.813568115234375,0.0,-6.978181838989258,-1.264816164970398,4.8308563232421875,-89.1629867553711,0.6863240599632263,0.0
1641,-0.015095710754394531,-0.9937770366668701,0.013162612915039062,-0.039826393127441406,-0.26361894607543945,0.636742115020752,-88.84542846679688,0.870193362236023,0.0,-6.978381156921387,-1.266134262084961,4.83404016494751,-89.16100311279297,0.686276912689209,0.0
1646,-0.012898445129394531,-0.9949977397918701,0.013895034790039062,-0.2535672187805176,-0.08041238784790039,0.7588796615600586,-88.90840148925781,0.7426278591156006,0.0,-6.979649066925049,-1.2665363550186157,4.837834358215332,-89.16053009033203,0.6862642168998718,0.0
1651,-0.012898445129394531,-0.9967067241668701,0.0065708160400390625,-0.1772313117980957,-0.3399543762207031,0.43826913833618164,-89.16792297363281,0.7414108514785767,0.0,-6.98053503036499,-1.2682361602783203,4.840025901794434,-89.16146087646484,0.6849542856216431,0.0
1656,-0.014607429504394531,-0.9967067241668701,0.0068149566650390625,-0.375704288482666,-0.17201566696166992,0.33139896392822266,-89.07347869873047,0.8396297097206116,0.0,-6.9824137687683105,-1.2690962553024292,4.8416829109191895,-89.1627197265625,0.6851602792739868,0.0
1661,-0.013875007629394531,-0.9906032085418701,0.012918472290039062,-0.16196393966674805,-0.09567975997924805,0.40773487091064453,-88.90361785888672,0.8023998141288757,0.0,-6.9832234382629395,-1.2695746421813965,4.843721389770508,-89.16175079345703,0.6854884624481201,0.0
1666,-0.015095710754394531,-0.9971950054168701,0.012430191040039062,-0.2841014862060547,-0.04987812042236328,0.07185697555541992,-88.8765869140625,0.8672198057174683,0.0,-6.984643936157227,-1.2698240280151367,4.844080448150635,-89.16120910644531,0.6864854097366333,0.0
1671,-0.008259773254394531,-0.9947535991668701,0.0073032379150390625,-0.08562803268432617,-0.06514549255371094,0.056589603424072266,-89.36498260498047,0.4757223427295685,0.0,-6.985072135925293,-1.2701497077941895,4.844363212585449,-89.16302490234375,0.6847190260887146,0.0
1676,-0.013142585754394531,-0.9952418804168701,0.014383316040039062,-0.22303247451782227,-0.15674829483032227,0.2855973243713379,-88.87848663330078,0.7564917802810669,0.0,-6.98618745803833,-1.2709333896636963,4.845791339874268,-89.16218566894531,0.684431791305542,0.0
1681,-0.015095710754394531,-1.0003688335418701,0.0009555816650390625,-0.26883411407470703,0.07225894927978516,0.6214752197265625,-89.13373565673828,0.8645356297492981,0.0,-6.987531661987305,-1.2705720663070679,4.848898887634277,-89.16332244873047,0.6860226392745972,0.0
1686,-0.011433601379394531,-0.9986598491668701,0.012918472290039062,-0.07036113739013672,-0.40102338790893555,0.4535360336303711,-89.01033020019531,0.6558926701545715,0.0,-6.987883567810059,-1.272577166557312,4.851166725158691,-89.16262817382812,0.6838251948356628,0.0
1691,-0.012898445129394531,-0.9935328960418701,0.010965347290039062,-0.3146357536315918,-0.26361894607543945,0.46880340576171875,-89.02378845214844,0.7437498569488525,0.0,-6.989456653594971,-1.273895263671875,4.853510856628418,-89.16323852539062,0.6829257011413574,0.0
1696,-0.015339851379394531,-0.9915797710418701,0.0077915191650390625,-0.009292125701904297,-0.43155765533447266,0.4840707778930664,-89.00594329833984,0.8862741589546204,0.0,-6.989502906799316,-1.2760530710220337,4.855931282043457,-89.1622085571289,0.6821720600128174,0.0
1701,-0.008992195129394531,-0.9940211772918701,0.0046176910400390625,-0.2077655792236328,-0.32468748092651367,0.19399404525756836,-89.4173583984375,0.5182939767837524,0.0,-6.990541934967041,-1.2776764631271362,4.856901168823242,-89.16497802734375,0.6794403791427612,0.0
1706,-0.012898445129394531,-0.9913356304168701,0.0075473785400390625,-0.10089540481567383,0.17912960052490234,0.27032995223999023,-89.13633728027344,0.7454219460487366,0.0,-6.99104642868042,-1.2767808437347412,4.858253002166748,-89.165283203125,0.6807804107666016,0.0
1711,-0.015339851379394531,-0.9967067241668701,0.0065708160400390625,-0.2077655792236328,0.026457786560058594,0.3772001266479492,-89.04078674316406,0.8817239999771118,0.0,-6.9920854568481445,-1.2766485214233398,4.860138893127441,-89.16546630859375,0.6822832822799683,0.0
1716,-0.013386726379394531,-0.9928004741668701,0.012918472290039062,0.1281123161315918,-0.17201566696166992,0.08712387084960938,-88.9264907836914,0.7724528312683105,0.0,-6.991445064544678,-1.2775086164474487,4.860574722290039,-89.16320037841797,0.682044267654419,0.0
1722,-0.011677742004394531,-0.9935328960418701,0.014139175415039062,-0.2535672187805176,-0.20254993438720703,-0.03501319885253906,-88.94258880615234,0.6733413338661194,0.0,-6.99271297454834,-1.2785214185714722,4.8603997230529785,-89.16295623779297,0.6809790730476379,0.0
1727,-0.013630867004394531,-0.9998805522918701,0.011941909790039062,-0.08562803268432617,-0.15674829483032227,0.3924674987792969,-88.961669921875,0.7809803485870361,0.0,-6.993226528167725,-1.2794618606567383,4.8627543449401855,-89.1620864868164,0.6807287335395813,0.0
1732,-0.009968757629394531,-0.9976832866668701,0.008523941040039062,-0.2077655792236328,-0.08041238784790039,0.27032995223999023,-89.24679565429688,0.5724540948867798,0.0,-6.994265556335449,-1.279863953590393,4.864106178283691,-89.1636962890625,0.6795893907546997,0.0
1737,-0.014119148254394531,-0.9986598491668701,0.010232925415039062,-0.39097166061401367,-0.08041238784790039,0.5604066848754883,-88.99967193603516,0.8099567294120789,0.0,-6.996220588684082,-1.2802660465240479,4.866908073425293,-89.16451263427734,0.6800808310508728,0.0
1742,-0.009480476379394531,-0.9996364116668701,0.0070590972900390625,-0.22303247451782227,-0.1109471321105957,0.9115514755249023,-89.32255554199219,0.5433590412139893,0.0,-6.997335910797119,-1.2808207273483276,4.871465682983398,-89.16669464111328,0.6785960793495178,0.0
1747,-0.014119148254394531,-0.9937770366668701,0.009500503540039062,-0.32990312576293945,-0.12621402740478516,0.819948673248291,-89.01893615722656,0.8139413595199585,0.0,-6.998985290527344,-1.2814518213272095,4.875565528869629,-89.16732025146484,0.6788933277130127,0.0
1752,-0.011921882629394531,-0.9969508647918701,0.019021987915039062,-0.11616230010986328,-0.15674829483032227,0.636742115020752,-88.71003723144531,0.6850053668022156,0.0,-6.999566078186035,-1.2822355031967163,4.878749370574951,-89.1647720336914,0.6781566739082336,0.0
1757,-0.010945320129394531,-0.9964625835418701,0.014383316040039062,0.08231067657470703,0.0569920539855957,0.30086469650268555,-88.96085357666016,0.6292560696601868,0.0,-6.999154567718506,-1.28195059299469,4.880253791809082,-89.16297149658203,0.6781060695648193,0.0
1762,-0.013875007629394531,-0.9949977397918701,0.009744644165039062,-0.13142967224121094,-0.08041238784790039,0.22452878952026367,-89.02375793457031,0.7988860011100769,0.0,-6.99981164932251,-1.2823526859283447,4.881376266479492,-89.16267395019531,0.6785305142402649,0.0
1767,-0.012654304504394531,-0.9981715679168701,0.0063266754150390625,-0.23829984664916992,-0.20254993438720703,0.1481928825378418,-89.1879653930664,0.7263128757476807,0.0,-7.001003265380859,-1.2833654880523682,4.88211727142334,-89.16403198242188,0.6778504252433777,0.0
1772,-0.012166023254394531,-0.9940211772918701,0.009256362915039062,-0.2077655792236328,-0.20254993438720703,0.08712387084960938,-89.1189193725586,0.7011890411376953,0.0,-7.002042293548584,-1.2843782901763916,4.8825531005859375,-89.16475677490234,0.6770036220550537,0.0
1777,-0.014607429504394531,-0.9925563335418701,0.0073032379150390625,-0.375704288482666,-0.43155765533447266,0.23979568481445312,-89.0573501586914,0.8431370258331299,0.0,-7.003921031951904,-1.2865360975265503,4.88375186920166,-89.16588592529297,0.6759923696517944,0.0
1782,-0.012166023254394531,-0.9932887554168701,0.0073032379150390625,0.005974769592285156,-0.23308420181274414,0.33139896392822266,-89.18154907226562,0.7017174959182739,0.0,-7.0038909912109375,-1.2877014875411987,4.885408878326416,-89.16596221923828,0.675010085105896,0.0
1787,-0.009724617004394531,-0.9932887554168701,0.0048618316650390625,-0.29936838150024414,-0.09567975997924805,0.43826913833618164,-89.37287902832031,0.5609195232391357,0.0,-7.005387783050537,-1.288179874420166,4.887600421905518,-89.16885375976562,0.6737581491470337,0.0
1792,-0.015583992004394531,-0.9937770366668701,0.011697769165039062,-0.1772313117980957,-0.3399543762207031,0.5451393127441406,-88.87669372558594,0.8983523845672607,0.0,-7.0062737464904785,-1.2898796796798706,4.890326023101807,-89.1677474975586,0.6735986471176147,0.0
1797,-0.01704883575439453,-0.9945094585418701,0.0063266754150390625,-0.07036113739013672,-0.2178173065185547,0.19399404525756836,-88.95244598388672,0.982103168964386,0.0,-7.006625652313232,-1.2909687757492065,4.891295909881592,-89.16663360595703,0.6746160984039307,0.0
1802,-0.015095710754394531,-1.0013453960418701,0.0041294097900390625,-0.32990312576293945,0.2249307632446289,0.2855973243713379,-89.10458374023438,0.863685667514801,0.0,-7.008275032043457,-1.2898441553115845,4.89272403717041,-89.1678466796875,0.6770191788673401,0.0
1807,-0.01582813262939453,-0.9981715679168701,0.013895034790039062,-0.22303247451782227,-0.12621402740478516,0.33139896392822266,-88.79121398925781,0.9083822965621948,0.0,-7.009390354156494,-1.2904752492904663,4.894381046295166,-89.16638946533203,0.6779656410217285,0.0
1812,-0.013142585754394531,-0.9986598491668701,0.012674331665039062,-0.07036113739013672,0.11806058883666992,0.636742115020752,-88.95259094238281,0.7539209723472595,0.0,-7.009742259979248,-1.2898849248886108,4.897564888000488,-89.165283203125,0.6790682673454285,0.0
1817,-0.01631641387939453,-0.9996364116668701,0.013895034790039062,-0.2077655792236328,0.27073240280151367,0.13292551040649414,-88.77182006835938,0.9350283145904541,0.0,-7.010781288146973,-1.2885313034057617,4.898229598999023,-89.16364288330078,0.6821522116661072,0.0
1822,-0.009480476379394531,-0.9945094585418701,0.013162612915039062,-0.1772313117980957,0.0569920539855957,0.316131591796875,-89.06553649902344,0.5461257696151733,0.0,-7.011667251586914,-1.2882463932037354,4.899810314178467,-89.16385650634766,0.6815111041069031,0.0
1827,-0.013875007629394531,-1.0003688335418701,0.0063266754150390625,0.021242141723632812,-0.2178173065185547,0.3466658592224121,-89.12666320800781,0.7946194410324097,0.0,-7.011560916900635,-1.2893354892730713,4.901543617248535,-89.16349792480469,0.6811975836753845,0.0
1832,-0.012898445129394531,-0.9942653179168701,0.009744644165039062,0.11284542083740234,-0.17201566696166992,0.6520094871520996,-89.06851959228516,0.7432116270065308,0.0,-7.0109968185424805,-1.2901955842971802,4.90480375289917,-89.16229248046875,0.680764377117157,0.0
1837,-0.013386726379394531,-0.9871852397918701,0.009988784790039062,0.005974769592285156,-0.1109471321105957,0.6520094871520996,-89.03067779541016,0.7768720984458923,0.0,-7.010966777801514,-1.29075026512146,4.908063888549805,-89.16136932373047,0.6808657646179199,0.0
1842,-0.012166023254394531,-0.9957301616668701,0.009256362915039062,0.1586465835571289,-0.2178173065185547,0.5909409523010254,-89.12042999267578,0.6999858021736145,0.0,-7.010173320770264,-1.291839361190796,4.911018371582031,-89.1603012084961,0.6799138188362122,0.0
1847,-0.01704883575439453,-0.9962184429168701,0.011697769165039062,-0.2535672187805176,-0.23308420181274414,0.33139896392822266,-88.81101989746094,0.9803709983825684,0.0,-7.011441230773926,-1.2930047512054443,4.912675380706787,-89.15918731689453,0.6807945966720581,0.0
1852,-0.011189460754394531,-0.9959743022918701,0.011697769165039062,-0.08562803268432617,-0.09567975997924805,0.20926141738891602,-89.06884765625,0.6436287760734558,0.0,-7.011869430541992,-1.2934831380844116,4.913721561431885,-89.15899658203125,0.6800673604011536,0.0
1857,-0.014607429504394531,-0.9954860210418701,0.009744644165039062,-0.08562803268432617,-0.3399543762207031,0.6978111267089844,-88.98945617675781,0.8406385183334351,0.0,-7.012297630310059,-1.2951829433441162,4.917210578918457,-89.15827178955078,0.6794678568840027,0.0
1862,-0.014119148254394531,-0.9962184429168701,0.012674331665039062,-0.23829984664916992,-0.26361894607543945,0.5451393127441406,-88.9089126586914,0.811918318271637,0.0,-7.013489246368408,-1.2965010404586792,4.919936180114746,-89.15776062011719,0.6790565252304077,0.0
1867,-0.013875007629394531,-0.9979274272918701,0.0048618316650390625,-0.16196393966674805,-0.37048912048339844,0.43826913833618164,-89.15593719482422,0.7965696454048157,0.0,-7.014298915863037,-1.2983534336090088,4.922127723693848,-89.15855407714844,0.6780129671096802,0.0
1873,-0.015095710754394531,-0.9967067241668701,0.0029087066650390625,-0.3146357536315918,0.07225894927978516,0.22452878952026367,-89.1163330078125,0.8677083253860474,0.0,-7.015872001647949,-1.2979921102523804,4.923250198364258,-89.15982818603516,0.6796570420265198,0.0
1878,-0.011921882629394531,-0.9984157085418701,0.008035659790039062,-0.22303247451782227,-0.3857560157775879,0.23979568481445312,-89.17499542236328,0.6841027736663818,0.0,-7.017210006713867,-1.3003066778182983,4.924688816070557,-89.1612548828125,0.6773884296417236,0.0
1883,-0.014851570129394531,-0.9979274272918701,0.010721206665039062,0.06704378128051758,-0.1109471321105957,0.636742115020752,-88.94844818115234,0.8525874018669128,0.0,-7.01687479019165,-1.3008613586425781,4.927872657775879,-89.15947723388672,0.6780271530151367,0.0
1888,-0.012166023254394531,-0.9930446147918701,0.008035659790039062,-0.19249820709228516,0.24019813537597656,0.16345977783203125,-89.15882110595703,0.701885998249054,0.0,-7.017837047576904,-1.299660325050354,4.928689956665039,-89.16043090820312,0.6793819665908813,0.0
1893,-0.014363288879394531,-0.9942653179168701,0.0075473785400390625,-0.2841014862060547,0.20966386795043945,0.8962841033935547,-89.06507110595703,0.8276210427284241,0.0,-7.019257545471191,-1.2986119985580444,4.933171272277832,-89.16119384765625,0.6814292073249817,0.0
1898,-0.013142585754394531,-0.9993922710418701,0.012674331665039062,-0.6047120094299316,0.13332796096801758,0.6520094871520996,-88.95335388183594,0.753368616104126,0.0,-7.022281169891357,-1.2979453802108765,4.936431407928467,-89.16278076171875,0.6825793981552124,0.0
1903,-0.014851570129394531,-0.9957301616668701,0.008035659790039062,0.17391395568847656,-0.04987812042236328,0.7436127662658691,-89.0284423828125,0.8544900417327881,0.0,-7.021411418914795,-1.2981947660446167,4.940149307250977,-89.16100311279297,0.6834977269172668,0.0
1908,-0.014607429504394531,-0.9959743022918701,-0.0017299652099609375,-0.1772313117980957,-0.08041238784790039,0.6825437545776367,-89.15386199951172,0.8402654528617859,0.0,-7.022297382354736,-1.2985968589782715,4.943562030792236,-89.16183471679688,0.6841614842414856,0.0
1913,-0.012654304504394531,-0.9947535991668701,0.013162612915039062,-0.2535672187805176,0.026457786560058594,0.40773487091064453,-88.94844818115234,0.7287590503692627,0.0,-7.023565292358398,-1.2984645366668701,4.945600509643555,-89.1616439819336,0.6845951676368713,0.0
1918,-0.01582813262939453,-0.9947535991668701,0.009988784790039062,-0.2077655792236328,-0.06514549255371094,0.2550630569458008,-88.9220962524414,0.9115452766418457,0.0,-7.024604320526123,-1.2987902164459229,4.946876049041748,-89.16104888916016,0.6858097910881042,0.0
1923,-0.013386726379394531,-0.9913356304168701,0.013895034790039062,-0.375704288482666,0.011190414428710938,0.2550630569458008,-88.8849868774414,0.7735835909843445,0.0,-7.026483058929443,-1.2987343072891235,4.948151588439941,-89.16104125976562,0.6864600777626038,0.0
1928,-0.01704883575439453,-0.9913356304168701,0.0077915191650390625,-0.32990312576293945,-0.12621402740478516,0.40773487091064453,-88.91674041748047,0.9852363467216492,0.0,-7.028132438659668,-1.2993654012680054,4.95019006729126,-89.16102600097656,0.6878571510314941,0.0
1933,-0.012898445129394531,-0.9945094585418701,0.016824722290039062,0.06704378128051758,-0.2788858413696289,0.36193323135375977,-88.77880859375,0.7429585456848145,0.0,-7.027797222137451,-1.3007597923278809,4.951999664306641,-89.1581039428711,0.6868453025817871,0.0
1938,-0.014363288879394531,-0.9945094585418701,0.0077915191650390625,-0.2077655792236328,0.0569920539855957,0.7283453941345215,-89.05867767333984,0.8274163603782654,0.0,-7.028836250305176,-1.3004748821258545,4.955641269683838,-89.15846252441406,0.6880800724029541,0.0
1943,-0.013142585754394531,-0.9976832866668701,0.015848159790039062,-0.1466965675354004,-0.004076957702636719,0.7741470336914062,-88.81778717041016,0.7546244263648987,0.0,-7.029569625854492,-1.3004952669143677,4.959512233734131,-89.1568832397461,0.6885102391242981,0.0
1948,-0.012410163879394531,-0.9954860210418701,0.014627456665039062,-0.2535672187805176,-0.04987812042236328,0.819948673248291,-88.89606475830078,0.714160144329071,0.0,-7.030837535858154,-1.300744652748108,4.963612079620361,-89.15637969970703,0.6884360909461975,0.0
1953,-0.013875007629394531,-0.9971950054168701,0.0063266754150390625,0.03650951385498047,-0.46209192276000977,0.49933767318725586,-89.12388610839844,0.7971481084823608,0.0,-7.0306549072265625,-1.3030551671981812,4.966108798980713,-89.15597534179688,0.6868767738342285,0.0
1958,-0.015339851379394531,-0.9947535991668701,0.008523941040039062,-0.16196393966674805,-0.309420108795166,0.3466658592224121,-88.98931884765625,0.883441686630249,0.0,-7.031464576721191,-1.3046022653579712,4.967842102050781,-89.15565490722656,0.686669647693634,0.0
1963,-0.010945320129394531,-0.9954860210418701,0.0048618316650390625,-0.46730756759643555,0.27073240280151367,0.30086469650268555,-89.31071472167969,0.6299313902854919,0.0,-7.033801078796387,-1.303248643875122,4.969346523284912,-89.15901947021484,0.6876304745674133,0.0
1968,-0.011921882629394531,-0.9937770366668701,0.012918472290039062,-0.5589103698730469,-0.20254993438720703,0.1787271499633789,-88.98660278320312,0.6872599124908447,0.0,-7.036595821380615,-1.3042614459991455,4.970240116119385,-89.16062927246094,0.6866220831871033,0.0
1973,-0.011433601379394531,-0.9930446147918701,0.008279800415039062,-0.32990312576293945,-0.26361894607543945,0.3466658592224121,-89.18556213378906,0.6596333980560303,0.0,-7.03824520111084,-1.3055795431137085,4.971973419189453,-89.16243743896484,0.6851304769515991,0.0
1978,-0.013386726379394531,-0.9940211772918701,0.009012222290039062,-0.1466965675354004,-0.004076957702636719,0.13292551040649414,-89.06990051269531,0.7715379595756531,0.0,-7.038978576660156,-1.3055999279022217,4.972638130187988,-89.16253662109375,0.68569415807724,0.0
1983,-0.011189460754394531,-0.9952418804168701,0.008523941040039062,-0.3451700210571289,0.13332796096801758,0.23979568481445312,-89.19026184082031,0.6441231966018677,0.0,-7.040704250335693,-1.3049333095550537,4.973836898803711,-89.16443634033203,0.6860753893852234,0.0
1988,-0.011921882629394531,-0.9928004741668701,0.0046176910400390625,-0.10089540481567383,-0.2788858413696289,0.1481928825378418,-89.26220703125,0.6879864931106567,0.0,-7.041208744049072,-1.3063277006149292,4.974577903747559,-89.16559600830078,0.6847032904624939,0.0
1993,-0.014851570129394531,-0.9991481304168701,0.013895034790039062,-0.05509376525878906,-0.2483515739440918,0.3466658592224121,-88.83387756347656,0.8515127301216125,0.0,-7.041484355926514,-1.3075695037841797,4.976311206817627,-89.16362762451172,0.6845964193344116,0.0
1998,-0.011677742004394531,-0.9979274272918701,0.012918472290039062,-0.22303247451782227,-0.5384278297424316,0.8046813011169434,-89.0002670288086,0.6703881621360779,0.0,-7.042599678039551,-1.310261607170105,4.980334758758545,-89.16362762451172,0.6818265318870544,0.0
2003,-0.011433601379394531,-0.9959743022918701,0.012918472290039062,0.021242141723632812,0.10279369354248047,0.8046813011169434,-89.0076675415039,0.6576607823371887,0.0,-7.0424933433532715,-1.3097476959228516,4.984358310699463,-89.16246795654297,0.6821739077568054,0.0
2008,-0.015339851379394531,-0.9928004741668701,0.008523941040039062,-0.29936838150024414,0.0569920539855957,0.49933767318725586,-88.9873275756836,0.8851792812347412,0.0,-7.043990135192871,-1.3094627857208252,4.9868550300598145,-89.16277313232422,0.6838269829750061,0.0
2013,-0.014607429504394531,-0.9928004741668701,0.014871597290039062,0.08231067657470703,-0.17201566696166992,0.36193323135375977,-88.79714965820312,0.8428580164909363,0.0,-7.043578624725342,-1.310322880744934,4.988664627075195,-89.15989685058594,0.6840457320213318,0.0
2019,-0.01704883575439453,-0.9945094585418701,0.012918472290039062,-0.375704288482666,-0.12621402740478516,0.10239124298095703,-88.7678451538086,0.9820402264595032,0.0,-7.045457363128662,-1.310953974723816,4.9891767501831055,-89.15911865234375,0.6854291558265686,0.0
2024,-0.015339851379394531,-0.9920680522918701,0.009744644165039062,-0.009292125701904297,-0.04987812042236328,0.33139896392822266,-88.9505386352539,0.885822594165802,0.0,-7.045513153076172,-1.3112531900405884,4.9911651611328125,-89.15776062011719,0.6864873766899109,0.0
2029,-0.015095710754394531,-0.9957301616668701,0.009988784790039062,-0.13142967224121094,-0.12621402740478516,0.056589603424072266,-88.95854187011719,0.8685191869735718,0.0,-7.046170234680176,-1.3118842840194702,4.991447925567627,-89.15706634521484,0.6870915293693542,0.0
2034,-0.011677742004394531,-0.9979274272918701,0.011941909790039062,-0.4215059280395508,-0.06514549255371094,-0.14188337326049805,-89.04110717773438,0.6703963279724121,0.0,-7.048277854919434,-1.312209963798523,4.990738391876221,-89.15837097167969,0.6866551041603088,0.0
2039,-0.008992195129394531,-0.9959743022918701,0.008523941040039062,-0.4062385559082031,0.08752632141113281,0.316131591796875,-89.28726196289062,0.5172643065452576,0.0,-7.050309181213379,-1.311772346496582,4.992319107055664,-89.1612548828125,0.6859447956085205,0.0
2044,-0.009236335754394531,-0.9984157085418701,0.008279800415039062,-0.36043739318847656,-0.2788858413696289,-0.004478931427001953,-89.28820037841797,0.5300094485282898,0.0,-7.0521111488342285,-1.3131667375564575,4.9922966957092285,-89.16390228271484,0.6835060119628906,0.0
2049,-0.010945320129394531,-0.9974391460418701,0.009744644165039062,-0.2077655792236328,0.255465030670166,0.5756735801696777,-89.15825653076172,0.6286755204200745,0.0,-7.053150177001953,-1.311889410018921,4.995174884796143,-89.1648941040039,0.6844042539596558,0.0
2054,-0.008259773254394531,-0.9979274272918701,0.011941909790039062,0.08231067657470703,-0.2483515739440918,1.064223289489746,-89.16638946533203,0.4741882383823395,0.0,-7.052738666534424,-1.3131312131881714,5.000495910644531,-89.16449737548828,0.6817509531974792,0.0
2059,-0.015339851379394531,-0.9952418804168701,0.0031528472900390625,0.17391395568847656,0.04172468185424805,1.0184216499328613,-89.09850311279297,0.8830363154411316,0.0,-7.051868915557861,-1.3129225969314575,5.005588054656982,-89.1631851196289,0.6833174824714661,0.0
2064,-0.014119148254394531,-0.9976832866668701,0.010232925415039062,-0.05509376525878906,-0.3857560157775879,0.7741470336914062,-88.99869537353516,0.810749351978302,0.0,-7.052144527435303,-1.3148514032363892,5.009459018707275,-89.16234588623047,0.6822620630264282,0.0
2069,-0.013142585754394531,-0.9937770366668701,0.012430191040039062,-0.2077655792236328,0.011190414428710938,1.033689022064209,-88.95716094970703,0.7576265931129456,0.0,-7.053183555603027,-1.3147954940795898,5.014627456665039,-89.16199493408203,0.6828263998031616,0.0
2074,-0.011189460754394531,-0.9952418804168701,0.0070590972900390625,-0.39097166061401367,-0.09567975997924805,0.6214752197265625,-89.23839569091797,0.6441305875778198,0.0,-7.05513858795166,-1.3152738809585571,5.017735004425049,-89.1644515991211,0.6820901036262512,0.0
2079,-0.012898445129394531,-0.9969508647918701,0.008523941040039062,-0.009292125701904297,-0.1414813995361328,0.08712387084960938,-89.11154174804688,0.7412183284759521,0.0,-7.055184841156006,-1.3159812688827515,5.0181708335876465,-89.16413879394531,0.6817864775657654,0.0
2084,-0.013142585754394531,-0.9881618022918701,0.0019321441650390625,-0.2535672187805176,0.27073240280151367,0.10239124298095703,-89.22982025146484,0.761989414691925,0.0,-7.056452751159668,-1.3146276473999023,5.018682956695557,-89.16584014892578,0.6836720705032349,0.0
2089,-0.014851570129394531,-0.9998805522918701,0.010477066040039062,-0.039826393127441406,0.11806058883666992,0.30086469650268555,-88.95862579345703,0.8509246706962585,0.0,-7.056652069091797,-1.3140373229980469,5.0201873779296875,-89.16464233398438,0.6853864789009094,0.0
2094,-0.011189460754394531,-0.9942653179168701,0.009012222290039062,-0.29936838150024414,-0.46209192276000977,-0.05028057098388672,-89.17211151123047,0.6447529196739197,0.0,-7.0581488609313965,-1.3163478374481201,5.0199360847473145,-89.16617584228516,0.6828175783157349,0.0
2099,-0.011189460754394531,-0.9967067241668701,0.020242691040039062,-0.22303247451782227,0.011190414428710938,0.11765861511230469,-88.67063903808594,0.6430675983428955,0.0,-7.059264183044434,-1.3162919282913208,5.020524501800537,-89.1639404296875,0.6826051473617554,0.0
2104,-0.012166023254394531,-0.9947535991668701,0.011453628540039062,-0.3146357536315918,-0.32468748092651367,0.3924674987792969,-89.03767395019531,0.7006567716598511,0.0,-7.060837268829346,-1.3179153203964233,5.022486686706543,-89.1646499633789,0.6811143159866333,0.0
2109,-0.01582813262939453,-0.9971950054168701,0.013650894165039062,-0.07036113739013672,0.1943964958190918,0.4535360336303711,-88.79923248291016,0.9092746376991272,0.0,-7.0611891746521,-1.3169432878494263,5.024754524230957,-89.16253662109375,0.6836174130439758,0.0
2114,-0.013142585754394531,-0.9962184429168701,0.014139175415039062,-0.07036113739013672,0.04172468185424805,0.6062078475952148,-88.88990020751953,0.7557530999183655,0.0,-7.0615410804748535,-1.3167346715927124,5.027785778045654,-89.16104888916016,0.6843106746673584,0.0
2119,-0.012166023254394531,-0.9967067241668701,0.0002231597900390625,0.005974769592285156,-0.06514549255371094,0.8657498359680176,-89.30055236816406,0.69933021068573,0.0,-7.061511039733887,-1.3170603513717651,5.032114505767822,-89.16195678710938,0.6840882897377014,0.0
2124,-0.010457038879394531,-0.9971950054168701,0.0055942535400390625,-0.4520401954650879,-0.20254993438720703,0.5146050453186035,-89.3186264038086,0.6007980704307556,0.0,-7.0637712478637695,-1.3180731534957886,5.034687519073486,-89.16525268554688,0.6825213432312012,0.0
2129,-0.012898445129394531,-0.9996364116668701,0.014627456665039062,-0.26883411407470703,-0.04987812042236328,1.0947575569152832,-88.8823471069336,0.7391751408576965,0.0,-7.065115451812744,-1.3183225393295288,5.0401611328125,-89.16468048095703,0.6826551556587219,0.0
2134,-0.012410163879394531,-0.9954860210418701,0.010965347290039062,-0.10089540481567383,-0.23308420181274414,0.5909409523010254,-89.04693603515625,0.7141939401626587,0.0,-7.065619945526123,-1.3194879293441772,5.043115615844727,-89.16439056396484,0.6817099452018738,0.0
2139,-0.012898445129394531,-0.9964625835418701,0.011209487915039062,-0.13142967224121094,-0.18728303909301758,0.33139896392822266,-89.01750946044922,0.7415616512298584,0.0,-7.066277027130127,-1.3204243183135986,5.044772624969482,-89.16405487060547,0.6811828017234802,0.0
2144,-0.014119148254394531,-0.9962184429168701,0.012186050415039062,0.005974769592285156,-0.2483515739440918,0.11765861511230469,-88.92745971679688,0.8119232654571533,0.0,-7.06624698638916,-1.3216661214828491,5.045361042022705,-89.16242980957031,0.6808294057846069,0.0
2149,-0.010212898254394531,-0.9949977397918701,0.013162612915039062,-0.07036113739013672,-0.2178173065185547,0.11765861511230469,-89.04074096679688,0.588025689125061,0.0,-7.066598892211914,-1.322755217552185,5.045949459075928,-89.16195678710938,0.6791231036186218,0.0
2154,-0.011677742004394531,-0.9930446147918701,0.015604019165039062,-0.2077655792236328,-0.23308420181274414,0.1787271499633789,-88.8756332397461,0.6736574769020081,0.0,-7.067637920379639,-1.3239206075668335,5.0468430519104,-89.16106414794922,0.6779287457466125,0.0
2159,-0.01680469512939453,-0.9935328960418701,0.011209487915039062,-0.05509376525878906,-0.37048912048339844,0.36193323135375977,-88.83523559570312,0.9689513444900513,0.0,-7.06791353225708,-1.325773000717163,5.048652648925781,-89.15914154052734,0.6780466437339783,0.0
2164,-0.013142585754394531,-0.9993922710418701,0.008768081665039062,-0.11616230010986328,-0.019343852996826172,0.49933767318725586,-89.09431457519531,0.7534002065658569,0.0,-7.0684943199157715,-1.3258696794509888,5.051149368286133,-89.1592788696289,0.6784574389457703,0.0
2170,-0.012898445129394531,-0.9984157085418701,0.010721206665039062,-0.5436434745788574,-0.309420108795166,0.5604066848754883,-89.0375747680664,0.7401153445243835,0.0,-7.071756362915039,-1.3277262449264526,5.054512023925781,-89.16170501708984,0.6770293116569519,0.0
2175,-0.01582813262939453,-0.9979274272918701,0.017313003540039062,0.18918085098266602,-0.40102338790893555,0.7130780220031738,-88.6534194946289,0.908555805683136,0.0,-7.070810317993164,-1.3297313451766968,5.058077335357666,-89.15734100341797,0.6765990257263184,0.0
2180,-0.013875007629394531,-0.9954860210418701,0.0048618316650390625,0.20444822311401367,0.28599977493286133,0.636742115020752,-89.15386962890625,0.79852294921875,0.0,-7.069787979125977,-1.3283013105392456,5.061261177062988,-89.15630340576172,0.6788413524627686,0.0
2185,-0.010457038879394531,-0.9930446147918701,0.012674331665039062,-0.26883411407470703,-0.1414813995361328,0.6062078475952148,-89.05204772949219,0.6032692193984985,0.0,-7.071132183074951,-1.32900869846344,5.0642924308776855,-89.15693664550781,0.677629292011261,0.0
2190,-0.012166023254394531,-0.9974391460418701,0.014627456665039062,-0.2535672187805176,-0.12621402740478516,0.11765861511230469,-88.90724182128906,0.6987416744232178,0.0,-7.072400093078613,-1.3296397924423218,5.064880847930908,-89.15650939941406,0.6771447658538818,0.0
2195,-0.009480476379394531,-0.9935328960418701,0.010232925415039062,-0.482574462890625,-0.09567975997924805,-0.09608221054077148,-89.19559478759766,0.5466814637184143,0.0,-7.074812889099121,-1.330118179321289,5.064400672912598,-89.15916442871094,0.6757904887199402,0.0
2200,-0.010701179504394531,-0.9945094585418701,0.011941909790039062,-0.2841014862060547,0.011190414428710938,0.16345977783203125,-89.07626342773438,0.6164491772651672,0.0,-7.076233386993408,-1.3300622701644897,5.065217971801758,-89.16001892089844,0.6754462718963623,0.0
2205,-0.01582813262939453,-0.9996364116668701,0.010477066040039062,-0.22303247451782227,-0.20254993438720703,0.20926141738891602,-88.91217041015625,0.9070894122123718,0.0,-7.077348709106445,-1.3310750722885132,5.0662641525268555,-89.15945434570312,0.6760006546974182,0.0
2210,-0.013875007629394531,-0.9967067241668701,0.0051059722900390625,-0.2841014862060547,-0.09567975997924805,0.636742115020752,-89.15016174316406,0.7975441217422485,0.0,-7.078769207000732,-1.3315534591674805,5.069447994232178,-89.16080474853516,0.6763440370559692,0.0
2215,-0.009480476379394531,-0.9981715679168701,0.009988784790039062,-0.6810479164123535,-0.1109471321105957,0.6672768592834473,-89.20955657958984,0.5441426634788513,0.0,-7.082174301147461,-1.3321081399917603,5.072784423828125,-89.16451263427734,0.6749028563499451,0.0
2220,-0.010945320129394531,-0.9971950054168701,0.0075473785400390625,-0.2535672187805176,0.04172468185424805,0.5146050453186035,-89.23614501953125,0.6288414001464844,0.0,-7.083442211151123,-1.3318995237350464,5.075357437133789,-89.16625213623047,0.6747999787330627,0.0
2225,-0.013386726379394531,-0.9959743022918701,0.013650894165039062,-0.1466965675354004,-0.09567975997924805,0.7741470336914062,-88.9002456665039,0.7699844241142273,0.0,-7.0841755867004395,-1.3323779106140137,5.079228401184082,-89.16519165039062,0.674965500831604,0.0
2230,-0.01729297637939453,-0.9976832866668701,0.013650894165039062,-0.36043739318847656,0.255465030670166,0.529871940612793,-88.73495483398438,0.9929229617118835,0.0,-7.085977554321289,-1.331100583076477,5.081877708435059,-89.1640853881836,0.6783739924430847,0.0
2235,-0.012654304504394531,-0.9925563335418701,0.0070590972900390625,0.20444822311401367,-0.32468748092651367,0.36193323135375977,-89.16361236572266,0.7304176092147827,0.0,-7.084955215454102,-1.3327239751815796,5.0836873054504395,-89.1630630493164,0.6771116256713867,0.0
2240,-0.012654304504394531,-0.9923121929168701,0.0046176910400390625,-0.009292125701904297,-0.23308420181274414,0.07185697555541992,-89.2222671508789,0.7306078672409058,0.0,-7.085001468658447,-1.333889365196228,5.084046363830566,-89.16350555419922,0.6763139367103577,0.0
