Time,Acc_low_X,Acc_low_Y,Acc_low_Z,Gyro_low_X,Gyro_low_Y,Gyro_low_Z,Acc_X,Acc_Y,Acc_Z,Gyro_X,Gyro_Y,Gyro_Z,Euler_X,Euler_Y,Euler_Z
0,1.0010175704956055,-0.003298521041870117,-0.020528793334960938,-0.07036113739013672,-0.004076957702636719,0.11765861511230469,-0.18875885009765625,-88.8100814819336,0.0,-0.2542147934436798,-0.014730047434568405,0.42510056495666504,-0.19146288931369781,-85.14186096191406,0.0
5,1.0010175704956055,-0.003054380416870117,-0.027120590209960938,0.2655167579650879,-0.004076957702636719,-0.004478931427001953,-0.17476053535938263,-88.4382553100586,0.0,-0.25288721919059753,-0.014750432223081589,0.4250781834125519,-0.18260987102985382,-86.7553482055664,0.0
10,1.0024824142456055,0.003781557083129883,-0.023702621459960938,-0.19249820709228516,0.08752632141113281,0.16345977783203125,0.2160693258047104,-88.62843322753906,0.0,-0.25384971499443054,-0.014312800951302052,0.42589548230171204,-0.052234675735235214,-87.37062072753906,0.0
15,1.0037031173706055,0.004025697708129883,-0.023946762084960938,0.005974769592285156,0.27073240280151367,-0.01974630355834961,0.22973789274692535,-88.61410522460938,0.0,-0.25381985306739807,-0.012959139421582222,0.4257967472076416,0.017540788277983665,-87.67720794677734,0.0
20,0.9975996017456055,-0.0001246929168701172,-0.021261215209960938,0.21971559524536133,0.07225894927978516,0.423001766204834,-0.007159942761063576,-88.779052734375,0.0,-0.25272127985954285,-0.012597844935953617,0.42791175842285156,0.013522201217710972,-87.89546966552734,0.0
25,1.0056562423706055,0.004025697708129883,-0.021749496459960938,-0.07036113739013672,-0.1414813995361328,0.3772001266479492,0.22930334508419037,-88.7400131225586,0.0,-0.2530730962753296,-0.013305251486599445,0.4297977685928345,0.04895050451159477,-88.03587341308594,0.0
30,1.0061445236206055,-0.0006129741668701172,-0.024923324584960938,-0.08562803268432617,-0.12621402740478516,0.056589603424072266,-0.0348956398665905,-88.58058166503906,0.0,-0.2535012364387512,-0.013936321251094341,0.43008071184158325,0.0366714783012867,-88.11380004882812,0.0
35,1.0019941329956055,-0.0006129741668701172,-0.03151512145996094,0.08231067657470703,-0.3857560157775879,0.19399404525756836,-0.03503360599279404,-88.19816589355469,0.0,-0.25308969616889954,-0.015865100547671318,0.43105068802833557,0.02810969389975071,-88.12598419189453,0.0
40,1.0049238204956055,0.004758119583129883,-0.026144027709960938,0.2960515022277832,-0.17201566696166992,0.10239124298095703,0.2711906433105469,-88.48526763916016,0.0,-0.2516094446182251,-0.01672517880797386,0.4315626323223114,0.056333743035793304,-88.16651916503906,0.0
45,1.0041913986206055,0.0008518695831298828,-0.025411605834960938,-0.024559497833251953,-0.03461122512817383,-0.30982255935668945,0.04858924448490143,-88.54959106445312,0.0,-0.2517322301864624,-0.01689823530614376,0.430013507604599,0.05545107647776604,-88.20487213134766,0.0
50,0.9988203048706055,0.0013401508331298828,-0.021261215209960938,0.18918085098266602,-0.29415321350097656,0.16345977783203125,0.07685822248458862,-88.77814483642578,0.0,-0.25078633427619934,-0.018369002267718315,0.43083080649375916,0.058252740651369095,-88.2582015991211,0.0
55,1.0061445236206055,0.003293275833129883,-0.018819808959960938,0.005974769592285156,0.24019813537597656,0.5451393127441406,0.18750500679016113,-88.9121322631836,0.0,-0.25075647234916687,-0.017168011516332626,0.4335564970970154,0.06903287023305893,-88.31150817871094,0.0
60,1.0017499923706055,-0.002566099166870117,-0.022237777709960938,0.09757804870605469,0.08752632141113281,0.16345977783203125,-0.1467333287000656,-88.7198715209961,0.0,-0.2502685785293579,-0.016730379313230515,0.43437379598617554,0.052903711795806885,-88.34248352050781,0.0
65,1.0032148361206055,0.003049135208129883,-0.018331527709960938,0.14337968826293945,0.4234042167663574,0.11765861511230469,0.17411313951015472,-88.93878173828125,0.0,-0.2495516836643219,-0.014613358303904533,0.43496209383010864,0.062223248183727264,-88.38309478759766,0.0
70,1.0098066329956055,0.0018284320831298828,-0.027608871459960938,-0.2077655792236328,0.4234042167663574,-0.20295238494873047,0.10370519757270813,-88.43045043945312,0.0,-0.2505905032157898,-0.012496337294578552,0.4339473247528076,0.0640195682644844,-88.38427734375,0.0
76,1.0061445236206055,0.004758119583129883,-0.026632308959960938,0.05177640914916992,-0.1109471321105957,-0.2640209197998047,0.27085837721824646,-88.45975494384766,0.0,-0.25027984380722046,-0.013162019662559032,0.43236321210861206,0.07725167274475098,-88.3896255493164,0.0
81,1.0051679611206055,0.002072572708129883,-0.017354965209960938,0.1586465835571289,-0.2178173065185547,0.0107879638671875,0.11812135577201843,-89.00381469726562,0.0,-0.24948661029338837,-0.014251106418669224,0.4324171543121338,0.08040623366832733,-88.42684173583984,0.0
86,1.0120038986206055,0.0003635883331298828,-0.021017074584960938,-0.22303247451782227,-0.3399543762207031,0.316131591796875,0.020580537617206573,-88.81008911132812,0.0,-0.25060176849365234,-0.015950879082083702,0.4339978098869324,0.07602196931838989,-88.44979095458984,0.0
91,0.9985761642456055,0.002072572708129883,-0.026876449584960938,-0.2841014862060547,-0.26361894607543945,0.13292551040649414,0.11887577176094055,-88.45369720458984,0.0,-0.25202226638793945,-0.01726897433400154,0.43466243147850037,0.07693846523761749,-88.45124816894531,0.0
96,1.0034589767456055,0.004025697708129883,-0.022237777709960938,0.14337968826293945,-0.004076957702636719,-0.17241811752319336,0.22980275750160217,-88.7098388671875,0.0,-0.25130537152290344,-0.017289359122514725,0.4338003396987915,0.0852898433804512,-88.46424865722656,0.0
101,1.0046796798706055,-0.002077817916870117,-0.028097152709960938,0.17391395568847656,0.04172468185424805,0.27032995223999023,-0.11844919621944427,-88.39369201660156,0.0,-0.25043579936027527,-0.01708073541522026,0.43515199422836304,0.0763748362660408,-88.46067810058594,0.0
106,1.0032148361206055,0.007687807083129883,-0.025899887084960938,0.11284542083740234,0.3928699493408203,-0.03501319885253906,0.4389125406742096,-88.45738220214844,0.0,-0.24987156689167023,-0.015116386115550995,0.4349769353866577,0.0934736356139183,-88.45865631103516,0.0
111,1.0046796798706055,0.005246400833129883,-0.021505355834960938,-0.039826393127441406,0.6371445655822754,0.2855973243713379,0.2991252541542053,-88.73780822753906,0.0,-0.2500706911087036,-0.011930663138628006,0.43640491366386414,0.10227516293525696,-88.46781158447266,0.0
116,1.0056562423706055,-0.0006129741668701172,-0.019063949584960938,0.14337968826293945,0.3318009376525879,0.6214752197265625,-0.03491701930761337,-88.9134292602539,0.0,-0.2493537962436676,-0.010271658189594746,0.4395122826099396,0.09720908105373383,-88.48490905761719,0.0
121,1.0059003829956055,0.00011944770812988281,-0.020284652709960938,-0.13142967224121094,0.026457786560058594,0.20926141738891602,0.006802321877330542,-88.8447265625,0.0,-0.2500109374523163,-0.010139369405806065,0.4405585825443268,0.09293622523546219,-88.49928283691406,0.0
126,1.0034589767456055,0.0003635883331298828,-0.021017074584960938,-0.16196393966674805,0.17912960052490234,0.11765861511230469,0.020755715668201447,-88.79995727539062,0.0,-0.25082075595855713,-0.009243721142411232,0.4411468803882599,0.08935954421758652,-88.51007843017578,0.0
131,1.0039472579956055,-0.002810239791870117,-0.025411605834960938,-0.26883411407470703,-0.12621402740478516,0.0107879638671875,-0.16033004224300385,-88.54122161865234,0.0,-0.25216493010520935,-0.009874790906906128,0.4412008225917816,0.07873672246932983,-88.51184844970703,0.0
136,1.0051679611206055,0.002072572708129883,-0.024435043334960938,-0.009292125701904297,0.026457786560058594,-0.23348665237426758,0.11810407042503357,-88.60244750976562,0.0,-0.25221139192581177,-0.009742502123117447,0.4400333762168884,0.08011142164468765,-88.5149917602539,0.0
141,0.9985761642456055,0.002804994583129883,-0.03273582458496094,0.11284542083740234,0.07225894927978516,-0.20295238494873047,0.1608566790819168,-88.1155014038086,0.0,-0.2516471743583679,-0.009381207637488842,0.4390186071395874,0.08346948027610779,-88.50072479248047,0.0
146,1.0039472579956055,-0.0003688335418701172,-0.026632308959960938,0.03650951385498047,-0.20254993438720703,0.19399404525756836,-0.02104211412370205,-88.48029327392578,0.0,-0.2514646351337433,-0.010393957607448101,0.4399885833263397,0.08012254536151886,-88.50101470947266,0.0
151,1.0007734298706055,0.004513978958129883,-0.030782699584960938,0.08231067657470703,-0.06514549255371094,0.13292551040649414,0.25830814242362976,-88.21936798095703,0.0,-0.2510530948638916,-0.01071968488395214,0.4406532049179077,0.08633921295404434,-88.49213409423828,0.0
156,1.0032148361206055,0.003049135208129883,-0.03127098083496094,0.08231067657470703,0.255465030670166,0.08712387084960938,0.17405766248703003,-88.20616149902344,0.0,-0.2506415545940399,-0.009442360140383244,0.44108882546424866,0.08951520919799805,-88.48184204101562,0.0
161,1.0059003829956055,-0.005984067916870117,-0.027853012084960938,-0.26883411407470703,0.45393848419189453,0.04132270812988281,-0.34071606397628784,-88.37773132324219,0.0,-0.25198572874069214,-0.007172667887061834,0.44129544496536255,0.07498984783887863,-88.47644805908203,0.0
166,1.0037031173706055,0.0013401508331298828,-0.014913558959960938,-0.19249820709228516,0.34706830978393555,0.22452878952026367,0.07649320363998413,-89.14530181884766,0.0,-0.25294822454452515,-0.005437326151877642,0.44241809844970703,0.07410098612308502,-88.49473571777344,0.0
171,1.0039472579956055,0.002316713333129883,-0.023946762084960938,0.14337968826293945,-0.09567975997924805,-0.17241811752319336,0.1321781724691391,-88.62722778320312,0.0,-0.25223132967948914,-0.005915725138038397,0.44155600666999817,0.0764833465218544,-88.4990463256836,0.0
176,1.0041913986206055,-0.0006129741668701172,-0.023214340209960938,0.05177640914916992,-0.09567975997924805,0.33139896392822266,-0.034964896738529205,-88.67523956298828,0.0,-0.2519724369049072,-0.006394124124199152,0.44321301579475403,0.0735856294631958,-88.5044937133789,0.0
181,1.0007734298706055,0.0008518695831298828,-0.023458480834960938,0.23498249053955078,-0.08041238784790039,-0.1571507453918457,0.0487574078142643,-88.65632629394531,0.0,-0.2507975101470947,-0.0067961858585476875,0.44242724776268005,0.0740448459982872,-88.50906372070312,0.0
186,1.0002851486206055,0.00011944770812988281,-0.023702621459960938,-0.1772313117980957,-0.1109471321105957,0.20926141738891602,0.0068399785086512566,-88.64256286621094,0.0,-0.25168365240097046,-0.007350921630859375,0.44347354769706726,0.07137948274612427,-88.51318359375,0.0
191,1.0041913986206055,-0.0003688335418701172,-0.023214340209960938,0.1586465835571289,-0.5842294692993164,-0.05028057098388672,-0.021038778126239777,-88.675537109375,0.0,-0.25089043378829956,-0.010272068902850151,0.44322213530540466,0.06973343342542648,-88.52027893066406,0.0
196,1.0039472579956055,-0.0003688335418701172,-0.023702621459960938,-0.19249820709228516,-0.40102338790893555,0.23979568481445312,-0.021043652668595314,-88.64736938476562,0.0,-0.25185292959213257,-0.012277185916900635,0.44442111253738403,0.06647670269012451,-88.52548217773438,0.0
201,1.0059003829956055,0.003049135208129883,-0.022237777709960938,0.09757804870605469,0.11806058883666992,-0.17241811752319336,0.1736348569393158,-88.7217025756836,0.0,-0.2513650357723236,-0.011686882935464382,0.44355902075767517,0.06962604075670242,-88.5298080444336,0.0
206,1.0051679611206055,0.002560853958129883,-0.022481918334960938,0.03650951385498047,0.1943964958190918,0.22452878952026367,0.14593493938446045,-88.71043395996094,0.0,-0.251182496547699,-0.010714900679886341,0.44468167424201965,0.07166493684053421,-88.53326416015625,0.0
211,1.0034589767456055,-0.0018336772918701172,-0.026632308959960938,-0.10089540481567383,0.6982131004333496,0.5451393127441406,-0.10466284304857254,-88.4760971069336,0.0,-0.2516869604587555,-0.007223835214972496,0.4474073648452759,0.06696759909391403,-88.52848815917969,0.0
216,1.0041913986206055,-0.002077817916870117,-0.020528793334960938,-0.29936838150024414,0.11806058883666992,0.36193323135375977,-0.11852835863828659,-88.8228759765625,0.0,-0.2531838119029999,-0.0066335322335362434,0.4492170214653015,0.061177320778369904,-88.53478240966797,0.0
222,1.0034589767456055,0.003049135208129883,-0.023946762084960938,0.05177640914916992,0.026457786560058594,0.23979568481445312,0.17405028641223907,-88.62191009521484,0.0,-0.25292491912841797,-0.006501243449747562,0.4504159986972809,0.06400880217552185,-88.5366439819336,0.0
227,1.0039472579956055,-0.0018336772918701172,-0.024923324584960938,0.08231067657470703,0.011190414428710938,0.316131591796875,-0.10461654514074326,-88.57406616210938,0.0,-0.25243106484413147,-0.006434101145714521,0.45231279730796814,0.06071518361568451,-88.53741455078125,0.0
232,1.0061445236206055,0.00011944770812988281,-0.023702621459960938,-0.13142967224121094,-0.1414813995361328,0.0107879638671875,0.006800167262554169,-88.65046691894531,0.0,-0.25308820605278015,-0.007141508162021637,0.45236673951148987,0.05888916924595833,-88.54058837890625,0.0
237,0.9993085861206055,-0.0003688335418701172,-0.022237777709960938,0.08231067657470703,-0.15674829483032227,0.026055335998535156,-0.021141991019248962,-88.72502136230469,0.0,-0.25267666578292847,-0.007925249636173248,0.4524970054626465,0.057569719851017,-88.54532623291016,0.0
242,1.0027265548706055,0.005246400833129883,-0.03249168395996094,-0.1466965675354004,-0.6147637367248535,0.3466658592224121,0.29961928725242615,-88.12005615234375,0.0,-0.2534101605415344,-0.01099906861782074,0.45423033833503723,0.0619608499109745,-88.53936004638672,0.0
247,1.0034589767456055,-0.0003688335418701172,-0.028585433959960938,0.09757804870605469,-0.23308420181274414,0.27032995223999023,-0.02105121873319149,-88.36812591552734,0.0,-0.25292226672172546,-0.01216448936611414,0.45558199286460876,0.06071911379694939,-88.53695678710938,0.0
252,1.0046796798706055,0.0018284320831298828,-0.024923324584960938,0.20444822311401367,-0.416290283203125,0.40773487091064453,0.10424128919839859,-88.57512664794922,0.0,-0.2519000172615051,-0.014245940372347832,0.45762068033218384,0.06260564923286438,-88.5397720336914,0.0
257,1.0017499923706055,-0.0006129741668701172,-0.022481918334960938,-0.024559497833251953,0.1943964958190918,-0.01974630355834961,-0.0350506491959095,-88.7138671875,0.0,-0.25202280282974243,-0.01327395811676979,0.4575219452381134,0.06053474172949791,-88.54229736328125,0.0
262,1.0059003829956055,0.002560853958129883,-0.026388168334960938,0.021242141723632812,0.27073240280151367,0.1481928825378418,0.14581498503684998,-88.49022674560547,0.0,-0.2519165873527527,-0.011920296587049961,0.45826292037963867,0.062312521040439606,-88.53995513916016,0.0
267,1.0056562423706055,0.003781557083129883,-0.023702621459960938,0.1281123161315918,0.4692058563232422,0.1787271499633789,0.21538780629634857,-88.63275909423828,0.0,-0.25127601623535156,-0.009574267081916332,0.4591565430164337,0.06589360535144806,-88.5394515991211,0.0
272,1.0046796798706055,0.002316713333129883,-0.021749496459960938,0.06704378128051758,0.1943964958190918,0.36193323135375977,0.13208843767642975,-88.7528305053711,0.0,-0.25094079971313477,-0.008602284826338291,0.46096619963645935,0.06747805327177048,-88.54254913330078,0.0
277,1.0059003829956055,0.006711244583129883,-0.017599105834960938,0.31131839752197266,-0.15674829483032227,0.5909409523010254,0.3822062909603119,-88.9272689819336,0.0,-0.24938420951366425,-0.009386026300489902,0.4639208912849426,0.07487772405147552,-88.55049896240234,0.0
282,1.0044355392456055,0.0010960102081298828,-0.013448715209960938,0.38765430450439453,-0.1414813995361328,0.3772001266479492,0.0625138208270073,-89.23035430908203,0.0,-0.2474459409713745,-0.01009343285113573,0.46580690145492554,0.07655341923236847,-88.56367492675781,0.0
287,1.0059003829956055,0.003049135208129883,-0.021505355834960938,0.021242141723632812,-0.09567975997924805,0.04132270812988281,0.17363759875297546,-88.76300048828125,0.0,-0.24733972549438477,-0.010571831837296486,0.46601352095603943,0.07841209322214127,-88.5677490234375,0.0
292,1.0019941329956055,0.0018284320831298828,-0.025655746459960938,0.005974769592285156,-0.08041238784790039,0.22452878952026367,0.1045185774564743,-88.5295639038086,0.0,-0.2473098486661911,-0.010973894037306309,0.4671361744403839,0.07890594750642776,-88.56746673583984,0.0
297,1.0024824142456055,0.0010960102081298828,-0.026876449584960938,-0.009292125701904297,-0.06514549255371094,0.11765861511230469,0.06261873245239258,-88.46299743652344,0.0,-0.24735631048679352,-0.011299621313810349,0.467724472284317,0.07857487350702286,-88.56595611572266,0.0
302,1.0056562423706055,-0.0018336772918701172,-0.026388168334960938,-0.46730756759643555,0.17912960052490234,0.11765861511230469,-0.10443499684333801,-88.49329376220703,0.0,-0.24969284236431122,-0.010403973050415516,0.4683127701282501,0.07311886548995972,-88.56382751464844,0.0
307,0.9978437423706055,0.003293275833129883,-0.021505355834960938,0.05177640914916992,-0.12621402740478516,0.27032995223999023,0.1890539675951004,-88.7509765625,0.0,-0.2494339644908905,-0.011035042814910412,0.46966442465782166,0.07534606009721756,-88.56763458251953,0.0
312,1.0019941329956055,0.0008518695831298828,-0.025411605834960938,-0.13142967224121094,0.011190414428710938,0.08712387084960938,0.048695724457502365,-88.54641723632812,0.0,-0.2500911056995392,-0.010979090817272663,0.4701000452041626,0.0742529034614563,-88.56722259521484,0.0
317,1.0024824142456055,0.003049135208129883,-0.026144027709960938,0.25024986267089844,0.4234042167663574,-0.08081483840942383,0.17421020567417145,-88.49598693847656,0.0,-0.2488398551940918,-0.008862069807946682,0.4696959853172302,0.07713677734136581,-88.56396484375,0.0
322,1.0012617111206055,0.003537416458129883,-0.023214340209960938,0.1586465835571289,0.08752632141113281,0.529871940612793,0.20236840844154358,-88.65650177001953,0.0,-0.2480466216802597,-0.008424438536167145,0.47234535217285156,0.07996011525392532,-88.56504821777344,0.0
327,1.0032148361206055,-0.002077817916870117,-0.022481918334960938,0.2655167579650879,-0.019343852996826172,0.30086469650268555,-0.11863873898983002,-88.71075439453125,0.0,-0.24671903252601624,-0.008521158248186111,0.47384968400001526,0.07806982845067978,-88.56748962402344,0.0
332,1.0054121017456055,0.002804994583129883,-0.026876449584960938,0.09757804870605469,-0.309420108795166,-0.34035682678222656,0.1597917377948761,-88.46043395996094,0.0,-0.24623113870620728,-0.010068259201943874,0.4721479117870331,0.07984799146652222,-88.56731414794922,0.0
337,1.0022382736206055,0.003537416458129883,-0.022237777709960938,0.05177640914916992,-0.5994963645935059,0.04132270812988281,0.2021757960319519,-88.71294403076172,0.0,-0.24597226083278656,-0.013065741397440434,0.472354531288147,0.08202068507671356,-88.57254791259766,0.0
342,1.0071210861206055,0.0010960102081298828,-0.020772933959960938,0.14337968826293945,-0.5536952018737793,-0.08081483840942383,0.062339454889297485,-88.81674194335938,0.0,-0.24525536596775055,-0.01583421789109707,0.4719504714012146,0.08242183178663254,-88.57905578613281,0.0
347,1.0061445236206055,-0.0013453960418701172,-0.029806137084960938,-0.009292125701904297,0.04172468185424805,0.2855973243713379,-0.07658111304044724,-88.30142974853516,0.0,-0.24530182778835297,-0.015625594183802605,0.473378449678421,0.07994551211595535,-88.5746078491211,0.0
352,0.9963788986206055,0.005246400833129883,-0.018819808959960938,-0.13142967224121094,0.04172468185424805,0.07185697555541992,0.30163249373435974,-88.87666320800781,0.0,-0.24595896899700165,-0.01541697047650814,0.4737377464771271,0.08264560252428055,-88.57896423339844,0.0
357,1.0019941329956055,0.0015842914581298828,-0.024190902709960938,0.08231067657470703,0.28599977493286133,0.07185697555541992,0.09056609123945236,-88.61402893066406,0.0,-0.24554741382598877,-0.013986971229314804,0.47409704327583313,0.08316917717456818,-88.57807922363281,0.0
362,1.0029706954956055,-0.0008571147918701172,-0.026632308959960938,-0.024559497833251953,0.1943964958190918,0.10239124298095703,-0.04894633963704109,-88.4781723022461,0.0,-0.24567021429538727,-0.013014988973736763,0.47460898756980896,0.08110058307647705,-88.57565307617188,0.0
368,1.0007734298706055,0.0010960102081298828,-0.023458480834960938,0.005974769592285156,0.3318009376525879,0.1481928825378418,0.06273096799850464,-88.65574645996094,0.0,-0.2456403374671936,-0.011355984024703503,0.47534996271133423,0.0808623656630516,-88.57518768310547,0.0
373,1.0078535079956055,0.004025697708129883,-0.023702621459960938,0.20444822311401367,0.45393848419189453,0.19399404525756836,0.228793665766716,-88.63348388671875,0.0,-0.24441364407539368,-0.008632353506982327,0.47651392221450806,0.08420506119728088,-88.5733413696289,0.0
378,1.0027265548706055,-0.002077817916870117,-0.022726058959960938,0.1586465835571289,0.0569920539855957,-0.004478931427001953,-0.11869583278894424,-88.69624328613281,0.0,-0.24362041056156158,-0.00834739301353693,0.4764915406703949,0.0820932686328888,-88.57481384277344,0.0
383,1.0019941329956055,0.0013401508331298828,-0.021505355834960938,-0.2841014862060547,0.026457786560058594,-0.06554794311523438,0.07661448419094086,-88.7680892944336,0.0,-0.2450409233570099,-0.008215104229748249,0.4761638045310974,0.08061552047729492,-88.5774154663086,0.0
388,1.0100507736206055,0.002316713333129883,-0.024190902709960938,-0.2841014862060547,-0.20254993438720703,0.0107879638671875,0.1313791424036026,-88.62174224853516,0.0,-0.2464614361524582,-0.009227854199707508,0.47621774673461914,0.07992305606603622,-88.57903289794922,0.0
393,1.0005292892456055,0.0010960102081298828,-0.03224754333496094,0.03650951385498047,-0.29415321350097656,0.13292551040649414,0.06273093819618225,-88.15290069580078,0.0,-0.24627888202667236,-0.010698620229959488,0.47688236832618713,0.07986578345298767,-88.57460021972656,0.0
398,1.0032148361206055,0.006222963333129883,-0.030538558959960938,0.06704378128051758,-0.26361894607543945,-0.1266164779663086,0.35523784160614014,-88.2206039428711,0.0,-0.24594366550445557,-0.012016714550554752,0.4762492775917053,0.08395745605230331,-88.5710678100586,0.0
403,1.0037031173706055,0.0018284320831298828,-0.026632308959960938,0.1586465835571289,-0.12621402740478516,0.13292551040649414,0.10433808714151382,-88.47649383544922,0.0,-0.24515043199062347,-0.012647784315049648,0.4769138991832733,0.08501545339822769,-88.5704116821289,0.0
408,1.0024824142456055,0.0010960102081298828,-0.028097152709960938,0.3723874092102051,0.1638622283935547,0.20926141738891602,0.06261664628982544,-88.39334106445312,0.0,-0.24328850209712982,-0.011828472837805748,0.4779601991176605,0.08655277639627457,-88.5672378540039,0.0
413,1.0054121017456055,0.0015842914581298828,-0.03297996520996094,-0.10089540481567383,0.1943964958190918,0.1481928825378418,0.09023597836494446,-88.11906433105469,0.0,-0.24379298090934753,-0.010856490582227707,0.4787011742591858,0.08610377460718155,-88.56034851074219,0.0
418,1.0071210861206055,0.0015842914581298828,-0.029561996459960938,0.23498249053955078,-0.23308420181274414,-0.11134910583496094,0.0900925025343895,-88.31626892089844,0.0,-0.24261806905269623,-0.012021911330521107,0.47814443707466125,0.08731559664011002,-88.55829620361328,0.0
423,1.0002851486206055,-0.0003688335418701172,-0.024190902709960938,-0.009292125701904297,-0.1109471321105957,-0.3250899314880371,-0.021120404824614525,-88.61446380615234,0.0,-0.24266453087329865,-0.012576647102832794,0.47651898860931396,0.08586110919713974,-88.55957794189453,0.0
428,1.0029706954956055,-0.0003688335418701172,-0.018819808959960938,-0.22303247451782227,0.0569920539855957,0.0107879638671875,-0.02106630429625511,-88.92481994628906,0.0,-0.24377968907356262,-0.012291686609387398,0.4765729308128357,0.0833844467997551,-88.56399536132812,0.0
433,1.0054121017456055,0.004269838333129883,-0.026388168334960938,0.21971559524536133,0.026457786560058594,0.0107879638671875,0.2432415783405304,-88.47700500488281,0.0,-0.2426811158657074,-0.012159397825598717,0.4766268730163574,0.08650672435760498,-88.56275939941406,0.0
438,1.0005292892456055,0.005002260208129883,-0.03273582458496094,-0.36043739318847656,-0.43155765533447266,-0.03501319885253906,0.2863011956214905,-88.10430145263672,0.0,-0.24448330700397491,-0.014317185617983341,0.4764518141746521,0.08725067973136902,-88.55909729003906,0.0
443,1.0039472579956055,0.003537416458129883,-0.024435043334960938,0.14337968826293945,-0.09567975997924805,0.23979568481445312,0.20182155072689056,-88.59122467041016,0.0,-0.2437664121389389,-0.014795584604144096,0.47765079140663147,0.0893925353884697,-88.55997467041016,0.0
448,1.0054121017456055,0.0010960102081298828,-0.027120590209960938,-0.07036113739013672,-0.09567975997924805,-0.20295238494873047,0.06243599206209183,-88.45358276367188,0.0,-0.24411821365356445,-0.015273983590304852,0.47663602232933044,0.0887107104063034,-88.55912780761719,0.0
453,1.0015058517456055,0.0010960102081298828,-0.025655746459960938,0.06704378128051758,-0.06514549255371094,-0.1266164779663086,0.06268174946308136,-88.5312271118164,0.0,-0.24378299713134766,-0.015599710866808891,0.47600293159484863,0.08872175961732864,-88.55911254882812,0.0
458,1.0051679611206055,-0.0001246929168701172,-0.028341293334960938,-0.024559497833251953,-0.15674829483032227,0.20926141738891602,-0.007104822434484959,-88.38492584228516,0.0,-0.24390579760074615,-0.016383452340960503,0.47704923152923584,0.08743235468864441,-88.5577621459961,0.0
463,1.0068769454956055,0.0015842914581298828,-0.017843246459960938,0.25024986267089844,-0.04987812042236328,-0.08081483840942383,0.0901390090584755,-88.98075103759766,0.0,-0.24265454709529877,-0.016632843762636185,0.47664517164230347,0.08870119601488113,-88.56312561035156,0.0
468,1.0017499923706055,0.003049135208129883,-0.026632308959960938,-0.024559497833251953,0.2249307632446289,0.22452878952026367,0.17433524131774902,-88.4671630859375,0.0,-0.24277734756469727,-0.015508189797401428,0.47776782512664795,0.08960622549057007,-88.56086730957031,0.0
473,1.0041913986206055,-0.0015895366668701172,-0.024435043334960938,-0.1466965675354004,-0.29415321350097656,0.2855973243713379,-0.09066669642925262,-88.6031494140625,0.0,-0.24351082742214203,-0.016978956758975983,0.47919580340385437,0.08673859387636185,-88.56282806396484,0.0
478,1.0041913986206055,-0.0018336772918701172,-0.020528793334960938,-0.19249820709228516,-0.12621402740478516,-0.06554794311523438,-0.10460148006677628,-88.8241958618164,0.0,-0.24447332322597504,-0.01761002652347088,0.4788680672645569,0.0835314393043518,-88.56653594970703,0.0
483,0.9971113204956055,0.002316713333129883,-0.021017074584960938,-0.039826393127441406,-0.09567975997924805,-0.09608221054077148,0.13309264183044434,-88.78518676757812,0.0,-0.24467246234416962,-0.01808842457830906,0.47838765382766724,0.08391433209180832,-88.56956481933594,0.0
488,1.0051679611206055,0.0015842914581298828,-0.027608871459960938,-0.22303247451782227,-0.20254993438720703,-0.1266164779663086,0.09027238935232162,-88.424072265625,0.0,-0.2457876205444336,-0.019101174548268318,0.4777545630931854,0.08288589119911194,-88.56887817382812,0.0
493,1.0051679611206055,0.0013401508331298828,-0.027608871459960938,-0.009292125701904297,-0.20254993438720703,0.316131591796875,0.07636135816574097,-88.4248046875,0.0,-0.245834082365036,-0.020113924518227577,0.479335218667984,0.08276483416557312,-88.56822204589844,0.0
498,1.0037031173706055,0.002804994583129883,-0.016866683959960938,-0.08562803268432617,0.08752632141113281,0.423001766204834,0.1600983887910843,-89.0240478515625,0.0,-0.24626222252845764,-0.019676292315125465,0.48145022988319397,0.0832253098487854,-88.572998046875,0.0
503,1.0061445236206055,0.0010960102081298828,-0.020772933959960938,-0.009292125701904297,-0.09567975997924805,0.11765861511230469,0.06239993870258331,-88.81558990478516,0.0,-0.24630868434906006,-0.020154690369963646,0.4820385277271271,0.08294317871332169,-88.57622528076172,0.0
508,1.0090742111206055,0.002072572708129883,-0.030050277709960938,0.2655167579650879,0.08752632141113281,0.10239124298095703,0.11762948334217072,-88.2901840209961,0.0,-0.2449810951948166,-0.019717058166861534,0.4825504720211029,0.0846463143825531,-88.57257843017578,0.0
513,1.0012617111206055,0.002316713333129883,-0.023946762084960938,-0.08562803268432617,0.10279369354248047,0.11765861511230469,0.1325324922800064,-88.62355041503906,0.0,-0.24540923535823822,-0.01920308917760849,0.483138769865036,0.08475814014673233,-88.57263946533203,0.0
519,1.0080976486206055,0.004269838333129883,-0.024190902709960938,-0.08562803268432617,0.11806058883666992,-0.08081483840942383,0.24260729551315308,-88.60411834716797,0.0,-0.24583737552165985,-0.018612787127494812,0.48273470997810364,0.08608625829219818,-88.5724105834961,0.0
524,1.0005292892456055,0.002316713333129883,-0.024435043334960938,-0.16196393966674805,0.2249307632446289,0.22452878952026367,0.13262788951396942,-88.59471893310547,0.0,-0.24680915474891663,-0.017263201996684074,0.484081894159317,0.0856388732790947,-88.57131958007812,0.0
529,0.9980878829956055,0.0015842914581298828,-0.027608871459960938,0.03650951385498047,0.04172468185424805,0.3772001266479492,0.09091226756572723,-88.41289520263672,0.0,-0.2466266006231308,-0.01705457828938961,0.4859679043292999,0.08587721735239029,-88.56938171386719,0.0
534,1.0071210861206055,0.002804994583129883,-0.025167465209960938,0.1281123161315918,-0.019343852996826172,0.43826913833618164,0.1595277637243271,-88.55964660644531,0.0,-0.24598604440689087,-0.017151298001408577,0.4881592392921448,0.08731246739625931,-88.56937408447266,0.0
539,1.0012617111206055,0.0018284320831298828,-0.025899887084960938,0.09757804870605469,-0.46209192276000977,0.3924674987792969,0.10459432750940323,-88.51455688476562,0.0,-0.2454981505870819,-0.01946175843477249,0.4901215732097626,0.08798191696405411,-88.5710678100586,0.0
544,1.0066328048706055,-0.002810239791870117,-0.023214340209960938,0.005974769592285156,0.1638622283935547,-0.1876850128173828,-0.15991100668907166,-88.66927337646484,0.0,-0.24546827375888824,-0.018642447888851166,0.4891831576824188,0.08534941077232361,-88.5713119506836,0.0
549,1.0068769454956055,-0.0008571147918701172,-0.026388168334960938,-0.23829984664916992,0.04172468185424805,0.2550630569458008,-0.04875689372420311,-88.4979476928711,0.0,-0.2466597706079483,-0.0184338241815567,0.4904584586620331,0.08273995667695999,-88.57032775878906,0.0
554,0.9985761642456055,0.0015842914581298828,-0.021261215209960938,0.09757804870605469,-0.3399543762207031,0.13292551040649414,0.09088197350502014,-88.77688598632812,0.0,-0.24617187678813934,-0.020133595913648605,0.4911230802536011,0.08330897986888885,-88.57420349121094,0.0
559,1.0000410079956055,0.002072572708129883,-0.022237777709960938,-0.08562803268432617,0.13332796096801758,0.19399404525756836,0.11871527880430222,-88.72061157226562,0.0,-0.24660001695156097,-0.019466955214738846,0.4920930564403534,0.08325822651386261,-88.57508850097656,0.0
564,1.0063886642456055,0.004025697708129883,-0.027364730834960938,-0.07036113739013672,0.10279369354248047,0.316131591796875,0.2291053682565689,-88.42569732666016,0.0,-0.24695181846618652,-0.0189529862254858,0.493673712015152,0.08443641662597656,-88.5730209350586,0.0
569,1.0022382736206055,0.0015842914581298828,-0.017599105834960938,-0.2077655792236328,0.1638622283935547,0.4535360336303711,0.09055645763874054,-88.98993682861328,0.0,-0.2479906529188156,-0.018133675679564476,0.4959414005279541,0.08347204327583313,-88.57654571533203,0.0
574,1.0027265548706055,-0.002566099166870117,-0.021749496459960938,0.20444822311401367,0.14859485626220703,-0.1571507453918457,-0.14659206569194794,-88.74880981445312,0.0,-0.24696841835975647,-0.017390701919794083,0.4951556324958801,0.0821055918931961,-88.57759094238281,0.0
579,1.0054121017456055,0.0003635883331298828,-0.021261215209960938,-0.26883411407470703,0.255465030670166,0.08712387084960938,0.02071530558168888,-88.78838348388672,0.0,-0.2483125925064087,-0.01611337624490261,0.49559125304222107,0.0801444724202156,-88.57849884033203,0.0
584,0.9983320236206055,0.002072572708129883,-0.021505355834960938,-0.19249820709228516,-0.15674829483032227,0.16345977783203125,0.11892031133174896,-88.76025390625,0.0,-0.2492750883102417,-0.016897117719054222,0.4964085519313812,0.07958785444498062,-88.58113098144531,0.0
589,1.0005292892456055,0.003293275833129883,-0.026632308959960938,-0.11616230010986328,0.13332796096801758,0.1481928825378418,0.188523530960083,-88.46363830566406,0.0,-0.2498559057712555,-0.016230477020144463,0.4971495270729065,0.0801190659403801,-88.57928466796875,0.0
594,1.0034589767456055,0.0013401508331298828,-0.023702621459960938,0.14337968826293945,-0.2178173065185547,0.2855973243713379,0.07649891823530197,-88.64471435546875,0.0,-0.24913901090621948,-0.017319563776254654,0.4985775053501129,0.08079217374324799,-88.58102416992188,0.0
599,1.0034589767456055,0.004269838333129883,-0.029561996459960938,0.28078413009643555,0.14859485626220703,0.4535360336303711,0.24369321763515472,-88.29505157470703,0.0,-0.24773508310317993,-0.01657659001648426,0.500845193862915,0.08381721377372742,-88.57742309570312,0.0
604,1.0022382736206055,-0.0003688335418701172,-0.017354965209960938,-0.039826393127441406,0.026457786560058594,0.3466658592224121,-0.02108224853873253,-89.00772857666016,0.0,-0.2479342222213745,-0.01644430123269558,0.5025784969329834,0.08257297426462173,-88.58158874511719,0.0
609,1.0051679611206055,0.003781557083129883,-0.025899887084960938,-0.32990312576293945,0.28599977493286133,-0.30982255935668945,0.2154807597398758,-88.50836181640625,0.0,-0.24958373606204987,-0.015014301985502243,0.501029372215271,0.0822591781616211,-88.57945251464844,0.0
614,0.9997968673706055,0.003781557083129883,-0.027608871459960938,-0.39097166061401367,0.07225894927978516,-0.37089109420776367,0.21662767231464386,-88.40345001220703,0.0,-0.25153860449790955,-0.014653007499873638,0.49917492270469666,0.08165020495653152,-88.57736206054688,0.0
619,0.9988203048706055,0.002804994583129883,-0.025655746459960938,0.3265857696533203,0.37760257720947266,0.20926141738891602,0.16085068881511688,-88.51985931396484,0.0,-0.24990567564964294,-0.012764994986355305,0.5002212524414062,0.08404483646154404,-88.5749282836914,0.0
624,1.0056562423706055,0.0013401508331298828,-0.024923324584960938,0.3571200370788574,0.07225894927978516,0.43826913833618164,0.07632963359355927,-88.5782699584961,0.0,-0.24812006950378418,-0.0124037005007267,0.5024126172065735,0.08573763072490692,-88.5746078491211,0.0
629,1.0010175704956055,0.002072572708129883,-0.020284652709960938,0.11284542083740234,-0.06514549255371094,0.4840707778930664,0.11860443651676178,-88.83307647705078,0.0,-0.24755583703517914,-0.01272942777723074,0.5048329830169678,0.08661574125289917,-88.57744598388672,0.0
634,1.0071210861206055,-0.0008571147918701172,-0.024923324584960938,-0.23829984664916992,-0.2178173065185547,-0.05028057098388672,-0.04874688759446144,-88.58155059814453,0.0,-0.2487473338842392,-0.013818514533340931,0.5045815706253052,0.08412719517946243,-88.57856750488281,0.0
639,1.0059003829956055,-0.003054380416870117,-0.022237777709960938,-0.10089540481567383,-0.17201566696166992,0.43826913833618164,-0.17393355071544647,-88.72166442871094,0.0,-0.2492518126964569,-0.014678592793643475,0.5067729353904724,0.0811455026268959,-88.58079528808594,0.0
644,0.9995527267456055,0.0015842914581298828,-0.021749496459960938,-0.13142967224121094,-0.09567975997924805,0.026055335998535156,0.09079226851463318,-88.75018310546875,0.0,-0.2499089539051056,-0.01515699177980423,0.5069032311439514,0.08058696240186691,-88.58289337158203,0.0
649,1.0022382736206055,0.0008518695831298828,-0.028585433959960938,0.005974769592285156,0.1638622283935547,0.27032995223999023,0.04867972061038017,-88.36555480957031,0.0,-0.24987907707691193,-0.01433768030256033,0.508254885673523,0.08031269907951355,-88.58001708984375,0.0
654,1.0015058517456055,0.005002260208129883,-0.03224754333496094,0.021242141723632812,-0.17201566696166992,0.1481928825378418,0.28602683544158936,-88.13372802734375,0.0,-0.24977286159992218,-0.015197758562862873,0.5089958310127258,0.08236740529537201,-88.57664489746094,0.0
659,1.0015058517456055,0.005490541458129883,-0.023946762084960938,0.005974769592285156,0.0569920539855957,-0.05028057098388672,0.31401893496513367,-88.5947494506836,0.0,-0.24974298477172852,-0.014912798069417477,0.5087444186210632,0.08458179980516434,-88.5765380859375,0.0
665,1.0024824142456055,-0.0011012554168701172,-0.025899887084960938,-0.1772313117980957,0.37760257720947266,0.36193323135375977,-0.06292001903057098,-88.51871490478516,0.0,-0.25062912702560425,-0.013024785555899143,0.5105540752410889,0.08231937140226364,-88.57412719726562,0.0
670,1.0034589767456055,0.004513978958129883,-0.021505355834960938,0.25024986267089844,0.0569920539855957,0.27032995223999023,0.2576795220375061,-88.74552154541016,0.0,-0.24912762641906738,-0.012682832777500153,0.5121760368347168,0.08544861525297165,-88.57539367675781,0.0
675,1.0029706954956055,0.0006077289581298828,-0.028829574584960938,0.14337968826293945,0.0569920539855957,-0.08081483840942383,0.034702833741903305,-88.35316467285156,0.0,-0.24841073155403137,-0.012397872284054756,0.5117719769477844,0.08568591624498367,-88.57304382324219,0.0
680,1.0066328048706055,0.0006077289581298828,-0.023214340209960938,0.34185266494750977,-0.1414813995361328,0.23979568481445312,0.03458167240023613,-88.67845916748047,0.0,-0.2467014640569687,-0.013105278834700584,0.5129709839820862,0.08690523356199265,-88.57472229003906,0.0
685,1.0051679611206055,-0.0015895366668701172,-0.021993637084960938,-0.009292125701904297,0.24019813537597656,0.07185697555541992,-0.09058374166488647,-88.74327087402344,0.0,-0.2467479258775711,-0.011904288083314896,0.5133302807807922,0.08522006124258041,-88.57508850097656,0.0
690,1.0051679611206055,0.0013401508331298828,-0.021261215209960938,-0.009292125701904297,-0.3552217483520508,0.1787271499633789,0.07637307792901993,-88.78585815429688,0.0,-0.24679438769817352,-0.013680396601557732,0.5142239332199097,0.0850926861166954,-88.57878875732422,0.0
695,1.0076093673706055,-0.0003688335418701172,-0.026632308959960938,-0.039826393127441406,0.24019813537597656,0.08712387084960938,-0.020965691655874252,-88.48580932617188,0.0,-0.2469935268163681,-0.012479405850172043,0.5146595239639282,0.08392450213432312,-88.57675170898438,0.0
700,1.0027265548706055,-0.0001246929168701172,-0.019796371459960938,0.09757804870605469,-0.20254993438720703,0.08712387084960938,-0.007123562972992659,-88.86895751953125,0.0,-0.24650563299655914,-0.013492155820131302,0.5150951147079468,0.08357806503772736,-88.5804214477539,0.0
705,1.0051679611206055,0.0015842914581298828,-0.026144027709960938,0.20444822311401367,0.011190414428710938,0.3924674987792969,0.09027590602636337,-88.50736236572266,0.0,-0.2454833984375,-0.013436203822493553,0.517057478427887,0.08465182036161423,-88.57970428466797,0.0
710,0.9988203048706055,-0.003786802291870117,-0.026388168334960938,-0.2077655792236328,-0.019343852996826172,0.11765861511230469,-0.21714723110198975,-88.47113800048828,0.0,-0.2465222328901291,-0.01353292353451252,0.5176457762718201,0.08089470118284225,-88.57881927490234,0.0
715,0.9988203048706055,0.002072572708129883,-0.03371238708496094,0.28078413009643555,0.026457786560058594,0.43826913833618164,0.11882209032773972,-88.06322479248047,0.0,-0.24511830508708954,-0.013400634750723839,0.5198371410369873,0.08262736350297928,-88.57405090332031,0.0
720,1.0041913986206055,0.0018284320831298828,-0.017843246459960938,-0.10089540481567383,0.1943964958190918,0.19399404525756836,0.10430759936571121,-88.97669982910156,0.0,-0.24562278389930725,-0.012428652495145798,0.5208070874214172,0.08232174813747406,-88.57669830322266,0.0
725,1.0019941329956055,-0.0001246929168701172,-0.027608871459960938,-0.2077655792236328,0.24019813537597656,0.16345977783203125,-0.007127454038709402,-88.42166137695312,0.0,-0.24666161835193634,-0.011227661743760109,0.5216243863105774,0.08049357682466507,-88.57412719726562,0.0
730,1.0015058517456055,0.006222963333129883,-0.027120590209960938,0.021242141723632812,-0.08041238784790039,0.316131591796875,0.35587838292121887,-88.40853118896484,0.0,-0.2465554028749466,-0.011629723943769932,0.523205041885376,0.0830477848649025,-88.57305908203125,0.0
735,1.0046796798706055,0.00011944770812988281,-0.024435043334960938,0.18918085098266602,-0.004076957702636719,0.33139896392822266,0.006809957791119814,-88.60675811767578,0.0,-0.24560949206352234,-0.011650108732283115,0.5248620510101318,0.08330998569726944,-88.57337951660156,0.0
740,1.0068769454956055,-0.002566099166870117,-0.026876449584960938,-0.10089540481567383,-0.18728303909301758,0.04132270812988281,-0.1459701508283615,-88.46401977539062,0.0,-0.24611397087574005,-0.012586523778736591,0.5250686407089233,0.080786794424057,-88.5733413696289,0.0
745,1.0046796798706055,-0.0003688335418701172,-0.021261215209960938,-0.26883411407470703,-0.17201566696166992,-0.06554794311523438,-0.021029463037848473,-88.7874984741211,0.0,-0.24745814502239227,-0.013446602039039135,0.5247408747673035,0.07855942845344543,-88.57608032226562,0.0
750,1.0015058517456055,0.0008518695831298828,-0.025411605834960938,-0.3146357536315918,-0.004076957702636719,0.10239124298095703,0.04871945083141327,-88.54570770263672,0.0,-0.24903132021427155,-0.013466986827552319,0.5252528190612793,0.07673870772123337,-88.57583618164062,0.0
755,1.0056562423706055,-0.0011012554168701172,-0.025411605834960938,-0.13142967224121094,-0.12621402740478516,0.2550630569458008,-0.0627223551273346,-88.55116271972656,0.0,-0.24968846142292023,-0.014098056592047215,0.5265281200408936,0.07487046718597412,-88.57624816894531,0.0
760,1.0024824142456055,-0.002321958541870117,-0.025899887084960938,0.25024986267089844,0.1638622283935547,0.3466658592224121,-0.1326644867658615,-88.51411437988281,0.0,-0.24843721091747284,-0.013278745114803314,0.5282614231109619,0.0743066594004631,-88.57489776611328,0.0
765,1.0078535079956055,0.0013401508331298828,-0.020284652709960938,0.31131839752197266,-0.46209192276000977,0.19399404525756836,0.07617118209600449,-88.84447479248047,0.0,-0.24688062071800232,-0.015589204616844654,0.5292313694953918,0.07586591690778732,-88.57952117919922,0.0
770,0.9985761642456055,0.004269838333129883,-0.022237777709960938,0.03650951385498047,-0.12621402740478516,0.11765861511230469,0.24493032693862915,-88.70096588134766,0.0,-0.2466980665922165,-0.016220275312662125,0.529819667339325,0.0775061547756195,-88.5811996459961,0.0
775,1.0019941329956055,-0.0001246929168701172,-0.021993637084960938,-0.07036113739013672,-0.08041238784790039,-0.14188337326049805,-0.007128442171961069,-88.74254608154297,0.0,-0.24704986810684204,-0.016622336581349373,0.5291102528572083,0.07642941176891327,-88.5829849243164,0.0
780,1.0046796798706055,-0.0013453960418701172,-0.022970199584960938,0.14337968826293945,0.10279369354248047,0.3772001266479492,-0.07670636475086212,-88.68801879882812,0.0,-0.24633297324180603,-0.01610836759209633,0.5309962630271912,0.07582754641771317,-88.58338165283203,0.0
785,1.0032148361206055,0.004025697708129883,-0.021749496459960938,0.23498249053955078,0.28599977493286133,-0.14188337326049805,0.2298610955476761,-88.73694610595703,0.0,-0.24515806138515472,-0.014678368344902992,0.5302868485450745,0.07830823957920074,-88.58328247070312,0.0
790,1.0041913986206055,-0.002321958541870117,-0.023214340209960938,-0.024559497833251953,-0.1109471321105957,-0.004478931427001953,-0.1324475109577179,-88.66909790039062,0.0,-0.24528086185455322,-0.01523310411721468,0.5302644371986389,0.07639215886592865,-88.58456420898438,0.0
795,1.0039472579956055,0.004269838333129883,-0.020040512084960938,0.2655167579650879,-0.32468748092651367,-0.01974630355834961,0.24363183975219727,-88.83077239990234,0.0,-0.24395327270030975,-0.016856541857123375,0.5301657319068909,0.07912760227918625,-88.58826446533203,0.0
800,1.0034589767456055,0.0018284320831298828,-0.026388168334960938,0.05177640914916992,-0.019343852996826172,0.1481928825378418,0.10436412692070007,-88.49002075195312,0.0,-0.24369439482688904,-0.01695326156914234,0.5309066772460938,0.07959774881601334,-88.58753204345703,0.0
805,1.0071210861206055,0.00011944770812988281,-0.022237777709960938,0.021242141723632812,0.2249307632446289,0.07185697555541992,0.0067938026040792465,-88.73506927490234,0.0,-0.2435881793498993,-0.015828607603907585,0.5312659740447998,0.07908927649259567,-88.58766174316406,0.0
810,1.0032148361206055,0.00011944770812988281,-0.023946762084960938,-0.11616230010986328,0.026457786560058594,-0.03501319885253906,0.006819975562393665,-88.6325912475586,0.0,-0.24416899681091309,-0.015696318820118904,0.5310909152030945,0.07790600508451462,-88.5879135131836,0.0
816,1.0000410079956055,-0.0001246929168701172,-0.025411605834960938,0.11284542083740234,-0.2178173065185547,0.22452878952026367,-0.007141779642552137,-88.54438018798828,0.0,-0.24349191784858704,-0.017003223299980164,0.5324380993843079,0.07786326110363007,-88.5888442993164,0.0
821,1.0068769454956055,0.003293275833129883,-0.018331527709960938,-0.039826393127441406,-0.1109471321105957,0.7894139289855957,0.18737033009529114,-88.94027709960938,0.0,-0.24369105696678162,-0.017557958140969276,0.536385178565979,0.07858242839574814,-88.59233856201172,0.0
826,1.0046796798706055,0.002316713333129883,-0.021505355834960938,0.1281123161315918,-0.2788858413696289,0.026055335998535156,0.13208912312984467,-88.76667022705078,0.0,-0.2430505007505417,-0.01895238645374775,0.536515474319458,0.07966414839029312,-88.59517669677734,0.0
831,0.9973554611206055,0.002072572708129883,-0.020772933959960938,-0.08562803268432617,0.31653404235839844,0.3772001266479492,0.11903855204582214,-88.80089569091797,0.0,-0.24347864091396332,-0.017369715496897697,0.5384014844894409,0.07956714183092117,-88.59532165527344,0.0
836,1.0039472579956055,0.003293275833129883,-0.017599105834960938,-0.039826393127441406,-0.17201566696166992,0.07185697555541992,0.18791937828063965,-88.97828674316406,0.0,-0.2436777800321579,-0.01822979375720024,0.538760781288147,0.08026839047670364,-88.59934997558594,0.0
841,1.0041913986206055,0.002316713333129883,-0.030782699584960938,0.21971559524536133,0.026457786560058594,0.1481928825378418,0.13212156295776367,-88.23922729492188,0.0,-0.24257920682430267,-0.01809750497341156,0.5395017266273499,0.08178670704364777,-88.59624481201172,0.0
846,1.0010175704956055,-0.0008571147918701172,-0.021505355834960938,0.005974769592285156,-0.12621402740478516,-0.05028057098388672,-0.0490478090941906,-88.76829528808594,0.0,-0.242549329996109,-0.018728574737906456,0.5392503142356873,0.08073749393224716,-88.5982894897461,0.0
851,1.0071210861206055,0.003293275833129883,-0.021993637084960938,-0.11616230010986328,0.37760257720947266,0.22452878952026367,0.1873112916946411,-88.73502349853516,0.0,-0.2431301474571228,-0.016840562224388123,0.5403729677200317,0.0810377225279808,-88.59754180908203,0.0
856,1.0027265548706055,0.0018284320831298828,-0.023458480834960938,0.21971559524536133,-0.15674829483032227,0.1481928825378418,0.10444788634777069,-88.65576171875,0.0,-0.24203157424926758,-0.017624303698539734,0.5411139130592346,0.0823192298412323,-88.59880065917969,0.0
861,0.9978437423706055,0.004513978958129883,-0.029806137084960938,0.14337968826293945,0.026457786560058594,-0.11134910583496094,0.25907349586486816,-88.2695541381836,0.0,-0.24131467938423157,-0.017492014914751053,0.5405571460723877,0.08447538316249847,-88.59597778320312,0.0
866,1.0046796798706055,0.005246400833129883,-0.029806137084960938,0.14337968826293945,-0.2483515739440918,0.22452878952026367,0.29906219244003296,-88.27458190917969,0.0,-0.24059778451919556,-0.01873377338051796,0.5416797995567322,0.08693601936101913,-88.59458923339844,0.0
871,1.0017499923706055,-0.0013453960418701172,-0.025411605834960938,0.25024986267089844,0.07225894927978516,-0.03501319885253906,-0.07692606002092361,-88.54484558105469,0.0,-0.23934653401374817,-0.01837247796356678,0.5415047407150269,0.08684471994638443,-88.59382629394531,0.0
876,1.0039472579956055,0.0003635883331298828,-0.027120590209960938,-0.039826393127441406,0.28599977493286133,-0.5235629081726074,0.02074260264635086,-88.45245361328125,0.0,-0.23954567313194275,-0.016942478716373444,0.5388869047164917,0.0861111655831337,-88.59126281738281,0.0
881,1.0061445236206055,0.0008518695831298828,-0.028097152709960938,0.2960515022277832,0.026457786560058594,0.4840707778930664,0.04849154129624367,-88.39966583251953,0.0,-0.2380654215812683,-0.016810189932584763,0.541307270526886,0.0872751921415329,-88.58958435058594,0.0
886,1.0032148361206055,0.002072572708129883,-0.030294418334960938,-0.024559497833251953,-0.06514549255371094,0.22452878952026367,0.11831503361463547,-88.26630401611328,0.0,-0.2381882220506668,-0.017135918140411377,0.5424299240112305,0.08740376681089401,-88.5873031616211,0.0
891,0.9973554611206055,0.005978822708129883,-0.021505355834960938,0.09757804870605469,0.0569920539855957,0.316131591796875,0.3433856964111328,-88.71792602539062,0.0,-0.23770032823085785,-0.01685095764696598,0.544010579586029,0.08994730561971664,-88.58807373046875,0.0
896,1.0010175704956055,0.004758119583129883,-0.027853012084960938,-0.1772313117980957,0.10279369354248047,0.026055335998535156,0.272235631942749,-88.38309478759766,0.0,-0.23858648538589478,-0.016336988657712936,0.5441408753395081,0.09053117036819458,-88.58592224121094,0.0
901,0.9983320236206055,-0.0003688335418701172,-0.023214340209960938,-0.26883411407470703,-0.26361894607543945,0.11765861511230469,-0.021162191405892372,-88.66776275634766,0.0,-0.239930659532547,-0.017655083909630775,0.5447291731834412,0.08830364048480988,-88.58788299560547,0.0
906,1.0010175704956055,0.003293275833129883,-0.030538558959960938,0.14337968826293945,0.08752632141113281,0.056589603424072266,0.1884106546640396,-88.24246215820312,0.0,-0.239213764667511,-0.017217451706528664,0.5450121164321899,0.089814193546772,-88.5846939086914,0.0
911,1.0061445236206055,0.00011944770812988281,-0.020772933959960938,-0.07036113739013672,0.0569920539855957,0.20926141738891602,0.006800604984164238,-88.81721496582031,0.0,-0.23956556618213654,-0.016932491213083267,0.5460584163665771,0.08880391716957092,-88.58626556396484,0.0
916,1.0017499923706055,0.002560853958129883,-0.021261215209960938,-0.1466965675354004,-0.23308420181274414,0.30086469650268555,0.14643651247024536,-88.77534484863281,0.0,-0.2402990460395813,-0.01809791289269924,0.5475627183914185,0.08853424340486526,-88.58892822265625,0.0
921,1.0027265548706055,0.002560853958129883,-0.025167465209960938,0.06704378128051758,-0.29415321350097656,0.20926141738891602,0.14628076553344727,-88.5548095703125,0.0,-0.2399638295173645,-0.019568679854273796,0.5486090183258057,0.08932459354400635,-88.59011840820312,0.0
926,1.0073652267456055,0.003537416458129883,-0.021261215209960938,0.14337968826293945,-0.019343852996826172,-0.03501319885253906,0.2011515498161316,-88.7742919921875,0.0,-0.2392469346523285,-0.019665399566292763,0.5484339594841003,0.09092026203870773,-88.5916748046875,0.0
931,0.9997968673706055,0.0018284320831298828,-0.024435043334960938,0.06704378128051758,-0.1414813995361328,0.07185697555541992,0.10475132614374161,-88.59605407714844,0.0,-0.2389117181301117,-0.02037280611693859,0.5487932562828064,0.09136196970939636,-88.59241485595703,0.0
936,1.0012617111206055,-0.0008571147918701172,-0.024190902709960938,0.44872283935546875,-0.1414813995361328,0.04132270812988281,-0.04903285577893257,-88.6151123046875,0.0,-0.23666810989379883,-0.02108021266758442,0.5489998459815979,0.09248263388872147,-88.59329986572266,0.0
941,1.0068769454956055,0.003293275833129883,-0.028341293334960938,-0.13142967224121094,0.07225894927978516,-0.3556241989135742,0.18732719123363495,-88.37683868408203,0.0,-0.2373252511024475,-0.02071891725063324,0.5472217202186584,0.09257564693689346,-88.59124755859375,0.0
946,0.9988203048706055,0.002560853958129883,-0.023702621459960938,0.21971559524536133,-0.03461122512817383,0.2855973243713379,0.14685775339603424,-88.63268280029297,0.0,-0.23622667789459229,-0.02089197374880314,0.5486497282981873,0.09409105032682419,-88.59174346923828,0.0
951,0.9983320236206055,0.003537416458129883,-0.023214340209960938,-0.26883411407470703,0.11806058883666992,0.056589603424072266,0.20296195149421692,-88.6525650024414,0.0,-0.2375708520412445,-0.02030167169868946,0.548932671546936,0.0936087891459465,-88.59163665771484,0.0
956,1.0000410079956055,-0.0013453960418701172,-0.022970199584960938,-0.009292125701904297,0.0569920539855957,0.04132270812988281,-0.0770619809627533,-88.68193817138672,0.0,-0.23761731386184692,-0.020016711205244064,0.5491392612457275,0.092230886220932,-88.5920639038086,0.0
962,0.9966230392456055,0.0006077289581298828,-0.031026840209960938,0.21971559524536133,-0.019343852996826172,0.20926141738891602,0.03492136672139168,-88.21650695800781,0.0,-0.2365187406539917,-0.02011343091726303,0.5501855611801147,0.09287466108798981,-88.58924102783203,0.0
967,1.0017499923706055,0.005978822708129883,-0.020772933959960938,-0.08562803268432617,0.026457786560058594,0.19399404525756836,0.3418853282928467,-88.76383972167969,0.0,-0.23703250288963318,-0.019954685121774673,0.5513495206832886,0.09430457651615143,-88.59043884277344,0.0
972,1.0032148361206055,0.0010960102081298828,-0.025655746459960938,0.09757804870605469,-0.15674829483032227,0.0107879638671875,0.06257504224777222,-88.53372955322266,0.0,-0.23654460906982422,-0.020738426595926285,0.5514034628868103,0.09454204142093658,-88.59077453613281,0.0
977,1.0039472579956055,-0.0008571147918701172,-0.025411605834960938,-0.26883411407470703,-0.04987812042236328,0.026055335998535156,-0.0489003024995327,-88.54923248291016,0.0,-0.23788878321647644,-0.020987818017601967,0.5515337586402893,0.09209562838077545,-88.59070587158203,0.0
982,1.0024824142456055,0.003537416458129883,-0.018087387084960938,-0.05509376525878906,0.13332796096801758,0.40773487091064453,0.20214340090751648,-88.94676971435547,0.0,-0.2381642460823059,-0.020321177318692207,0.553572416305542,0.09267416596412659,-88.59280395507812,0.0
987,1.0054121017456055,0.00011944770812988281,-0.020040512084960938,-0.07036113739013672,0.14859485626220703,0.026055335998535156,0.006805657409131527,-88.85807800292969,0.0,-0.23851604759693146,-0.019578203558921814,0.553702712059021,0.0916617214679718,-88.5941162109375,0.0
992,0.9995527267456055,-0.0006129741668701172,-0.026876449584960938,-0.024559497833251953,0.20966386795043945,-0.21821928024291992,-0.03512384742498398,-88.4593734741211,0.0,-0.23863884806632996,-0.01852988451719284,0.5526115894317627,0.0905623733997345,-88.592041015625,0.0
997,1.0015058517456055,0.003537416458129883,-0.019308090209960938,0.03650951385498047,-0.2788858413696289,0.33139896392822266,0.20233584940433502,-88.87715148925781,0.0,-0.23845629394054413,-0.019924312829971313,0.5542685985565186,0.09160356223583221,-88.59561920166016,0.0
1002,1.0019941329956055,-0.0018336772918701172,-0.019552230834960938,-0.05509376525878906,-0.03461122512817383,-0.06554794311523438,-0.10483280569314957,-88.87720489501953,0.0,-0.2387317568063736,-0.020097369328141212,0.5539408326148987,0.08982165902853012,-88.59795379638672,0.0
1007,1.0029706954956055,0.0018284320831298828,-0.025167465209960938,0.2655167579650879,0.2249307632446289,0.1481928825378418,0.10441816598176956,-88.55879974365234,0.0,-0.23740416765213013,-0.018972715362906456,0.5546817779541016,0.091250941157341,-88.59654235839844,0.0
1012,1.0012617111206055,0.003049135208129883,-0.027364730834960938,-0.08562803268432617,-0.1109471321105957,0.23979568481445312,0.17441676557064056,-88.42479705810547,0.0,-0.23783230781555176,-0.01952745020389557,0.5558807849884033,0.09146232157945633,-88.59577941894531,0.0
1017,1.0037031173706055,0.00011944770812988281,-0.020284652709960938,0.1281123161315918,0.026457786560058594,0.1787271499633789,0.006817207206040621,-88.84220123291016,0.0,-0.23719175159931183,-0.019395161420106888,0.5567744374275208,0.09145164489746094,-88.5975341796875,0.0
1022,1.0005292892456055,0.00011944770812988281,-0.022237777709960938,0.05177640914916992,0.08752632141113281,-0.1571507453918457,0.006838540080934763,-88.72673797607422,0.0,-0.2369328737258911,-0.018957529217004776,0.5559886693954468,0.09106364846229553,-88.59809112548828,0.0
1027,1.0051679611206055,0.006711244583129883,-0.018575668334960938,-0.1466965675354004,0.3318009376525879,0.056589603424072266,0.3824779987335205,-88.87432098388672,0.0,-0.23766635358333588,-0.01729852519929409,0.5562716126441956,0.09255283325910568,-88.59854888916016,0.0
1032,1.0105390548706055,0.0003635883331298828,-0.022726058959960938,0.14337968826293945,0.2249307632446289,0.1787271499633789,0.020609604194760323,-88.7115249633789,0.0,-0.23694945871829987,-0.016173871234059334,0.557165265083313,0.09271792322397232,-88.59829711914062,0.0
1037,1.0029706954956055,-0.0001246929168701172,-0.023946762084960938,-0.5741777420043945,0.10279369354248047,-0.004478931427001953,-0.007121187634766102,-88.63225555419922,0.0,-0.23982034623622894,-0.01565990224480629,0.5571428537368774,0.08911193162202835,-88.5980453491211,0.0
1042,1.0071210861206055,0.00011944770812988281,-0.024923324584960938,-0.08562803268432617,0.0569920539855957,-0.11134910583496094,0.006793378386646509,-88.58236694335938,0.0,-0.24024848639965057,-0.015374941751360893,0.5565860867500305,0.08806407451629639,-88.59764862060547,0.0
1047,1.0027265548706055,0.003293275833129883,-0.027364730834960938,-0.1772313117980957,-0.004076957702636719,0.19399404525756836,0.18810701370239258,-88.42549133300781,0.0,-0.2411346435546875,-0.015395326539874077,0.5575560331344604,0.08794039487838745,-88.59637451171875,0.0
1052,1.0002851486206055,0.0013401508331298828,-0.029317855834960938,-0.009292125701904297,0.07225894927978516,0.19399404525756836,0.07673010230064392,-88.31941986083984,0.0,-0.24118110537528992,-0.015034032054245472,0.5585259795188904,0.0878097414970398,-88.59393310546875,0.0
1057,1.0012617111206055,0.0018284320831298828,-0.028585433959960938,0.1586465835571289,-0.004076957702636719,-0.03501319885253906,0.10458669811487198,-88.36134338378906,0.0,-0.24038787186145782,-0.015054416842758656,0.5583509206771851,0.0887233167886734,-88.59220123291016,0.0
1062,0.9983320236206055,0.002072572708129883,-0.022237777709960938,0.2655167579650879,0.20966386795043945,0.529871940612793,0.11891840398311615,-88.71842193603516,0.0,-0.23906028270721436,-0.014006097801029682,0.5610002875328064,0.09026788175106049,-88.59210968017578,0.0
1067,1.0029706954956055,0.005490541458129883,-0.020528793334960938,0.021242141723632812,0.4234042167663574,0.33139896392822266,0.31358426809310913,-88.7862319946289,0.0,-0.2389540672302246,-0.011889076791703701,0.5626572966575623,0.09204911440610886,-88.59146881103516,0.0
1072,1.0022382736206055,0.004758119583129883,-0.023946762084960938,0.021242141723632812,-0.09567975997924805,0.16345977783203125,0.2719316780567169,-88.60453033447266,0.0,-0.23884785175323486,-0.012367475777864456,0.5634745955467224,0.0935022309422493,-88.592041015625,0.0
1077,1.0066328048706055,-0.0003688335418701172,-0.026632308959960938,-0.32990312576293945,-0.18728303909301758,0.316131591796875,-0.02098601683974266,-88.48434448242188,0.0,-0.24049736559391022,-0.013303890824317932,0.565055251121521,0.09100866317749023,-88.5921630859375,0.0
1082,1.0027265548706055,0.002560853958129883,-0.028341293334960938,-0.024559497833251953,-0.3552217483520508,0.16345977783203125,0.14626842737197876,-88.37442016601562,0.0,-0.24062016606330872,-0.015079999342560768,0.5658725500106812,0.09129948168992996,-88.59230041503906,0.0
1087,1.0049238204956055,0.002072572708129883,-0.030050277709960938,0.005974769592285156,-0.04987812042236328,0.0107879638671875,0.11811486631631851,-88.28312683105469,0.0,-0.24059028923511505,-0.015329389832913876,0.5659264922142029,0.09152909368276596,-88.59024810791016,0.0
1092,1.0007734298706055,0.002072572708129883,-0.026632308959960938,-0.2077655792236328,0.10279369354248047,-0.24875402450561523,0.11861573159694672,-88.47101593017578,0.0,-0.24162912368774414,-0.014815421774983406,0.5646827220916748,0.09069967269897461,-88.58885192871094,0.0
1097,1.0027265548706055,0.005246400833129883,-0.028341293334960938,0.23498249053955078,0.026457786560058594,-0.21821928024291992,0.29965686798095703,-88.353515625,0.0,-0.24045421183109283,-0.014683132991194725,0.5635915994644165,0.09341928362846375,-88.58697509765625,0.0
1102,1.0002851486206055,0.0003635883331298828,-0.022237777709960938,-0.4215059280395508,0.10279369354248047,-0.004478931427001953,0.020820992067456245,-88.72627258300781,0.0,-0.24256174266338348,-0.014169164933264256,0.563569188117981,0.09078849107027054,-88.5875015258789,0.0
1107,1.0051679611206055,0.002804994583129883,-0.026144027709960938,0.03650951385498047,-0.23308420181274414,0.16345977783203125,0.15983358025550842,-88.50154876708984,0.0,-0.24237918853759766,-0.015334585681557655,0.5643864870071411,0.09148146212100983,-88.58802032470703,0.0
1113,1.0022382736206055,0.0006077289581298828,-0.024923324584960938,0.17391395568847656,0.17912960052490234,0.08712387084960938,0.034731797873973846,-88.57505798339844,0.0,-0.2413357049226761,-0.014259807765483856,0.5649092197418213,0.09209607541561127,-88.58685302734375,0.0
1118,1.0019941329956055,0.002072572708129883,-0.023946762084960938,-0.024559497833251953,0.10279369354248047,0.2855973243713379,0.11847934126853943,-88.62582397460938,0.0,-0.24145850539207458,-0.013745839707553387,0.5663372278213501,0.09216967970132828,-88.58663177490234,0.0
1123,1.0007734298706055,-0.0006129741668701172,-0.024923324584960938,0.21971559524536133,0.0569920539855957,0.08712387084960938,-0.03508280962705612,-88.57296752929688,0.0,-0.24035993218421936,-0.01346087921410799,0.5667728185653687,0.0923185646533966,-88.58625030517578,0.0
1128,1.0019941329956055,0.004758119583129883,-0.021017074584960938,0.34185266494750977,-0.20254993438720703,-0.05028057098388672,0.2720157504081726,-88.76798248291016,0.0,-0.23865066468715668,-0.01447362918406725,0.566521406173706,0.09534291177988052,-88.5886001586914,0.0
1133,1.0044355392456055,0.003293275833129883,-0.023458480834960938,0.31131839752197266,-0.18728303909301758,0.30086469650268555,0.1878056675195694,-88.64899444580078,0.0,-0.23709407448768616,-0.015410044230520725,0.5680257081985474,0.09757022559642792,-88.58997344970703,0.0
1138,1.0022382736206055,-0.005984067916870117,-0.018575668334960938,0.1586465835571289,0.07225894927978516,0.10239124298095703,-0.342033326625824,-88.88446807861328,0.0,-0.23630084097385406,-0.01504874974489212,0.5685376524925232,0.09511862695217133,-88.59178924560547,0.0
1143,1.0066328048706055,0.002560853958129883,-0.020040512084960938,-0.039826393127441406,-0.09567975997924805,-0.05028057098388672,0.1457301378250122,-88.85021209716797,0.0,-0.23649998009204865,-0.015527148731052876,0.5682862401008606,0.09529335796833038,-88.59416961669922,0.0
1148,1.0007734298706055,0.0003635883331298828,-0.027608871459960938,-0.19249820709228516,0.026457786560058594,0.10239124298095703,0.020808059722185135,-88.41961669921875,0.0,-0.23746247589588165,-0.015394859947264194,0.5687981843948364,0.09379062801599503,-88.59275817871094,0.0
1153,1.0002851486206055,0.002316713333129883,-0.025899887084960938,0.06704378128051758,0.11806058883666992,0.10239124298095703,0.13265536725521088,-88.51087951660156,0.0,-0.23712725937366486,-0.014804556965827942,0.5693101286888123,0.09440857917070389,-88.5915756225586,0.0
1158,1.0041913986206055,0.002316713333129883,-0.021749496459960938,0.09757804870605469,-0.15674829483032227,0.3466658592224121,0.13215263187885284,-88.75222778320312,0.0,-0.2366393655538559,-0.015588298439979553,0.5710434317588806,0.09516950696706772,-88.59353637695312,0.0
1163,1.0010175704956055,0.006222963333129883,-0.024923324584960938,0.23498249053955078,0.31653404235839844,0.11765861511230469,0.35607215762138367,-88.52997589111328,0.0,-0.2354644536972046,-0.014005628414452076,0.5716317296028137,0.09824535250663757,-88.59150695800781,0.0
1168,1.0046796798706055,-0.002077817916870117,-0.018819808959960938,0.021242141723632812,0.45393848419189453,0.1481928825378418,-0.11847472190856934,-88.92033386230469,0.0,-0.23535823822021484,-0.01173593569546938,0.5723726749420166,0.0967666506767273,-88.59165954589844,0.0
1173,1.0046796798706055,-0.0008571147918701172,-0.021993637084960938,-0.08562803268432617,0.27073240280151367,0.16345977783203125,-0.04886859655380249,-88.7449722290039,0.0,-0.23578637838363647,-0.01038227416574955,0.5731899738311768,0.09527844935655594,-88.59143829345703,0.0
1178,0.9988203048706055,-0.0001246929168701172,-0.021017074584960938,0.021242141723632812,0.026457786560058594,0.20926141738891602,-0.007151233032345772,-88.79454803466797,0.0,-0.23568016290664673,-0.010249985381960869,0.574236273765564,0.09463704377412796,-88.59278869628906,0.0
1183,1.0037031173706055,-0.0011012554168701172,-0.026632308959960938,-0.10089540481567383,0.17912960052490234,-0.17241811752319336,-0.06284234672784805,-88.47876739501953,0.0,-0.23618464171886444,-0.009354337118566036,0.5733742117881775,0.09298942983150482,-88.59107208251953,0.0
1188,1.0032148361206055,0.0013401508331298828,-0.021993637084960938,-0.26883411407470703,0.08752632141113281,0.08712387084960938,0.07652049511671066,-88.74176788330078,0.0,-0.23752881586551666,-0.008916705846786499,0.573809802532196,0.09153524786233902,-88.59173583984375,0.0
1193,0.9968671798706055,-0.0001246929168701172,-0.025411605834960938,-0.19249820709228516,-0.23308420181274414,-0.05028057098388672,-0.0071645029820501804,-88.53974151611328,0.0,-0.23849131166934967,-0.010082126595079899,0.5735583901405334,0.08986272662878036,-88.59251403808594,0.0
1198,1.0034589767456055,0.0013401508331298828,-0.019796371459960938,0.021242141723632812,-0.2788858413696289,-0.08081483840942383,0.07650537043809891,-88.86721801757812,0.0,-0.23838509619235992,-0.011476555839180946,0.5731543302536011,0.08987124264240265,-88.59589385986328,0.0
1203,1.0029706954956055,0.0018284320831298828,-0.028341293334960938,-0.07036113739013672,-0.40102338790893555,0.20926141738891602,0.104409359395504,-88.37804412841797,0.0,-0.23873689770698547,-0.01348167285323143,0.5742006301879883,0.08962734788656235,-88.59630584716797,0.0
1208,1.0019941329956055,0.005734682083129883,-0.025899887084960938,0.09757804870605469,0.0569920539855957,0.22452878952026367,0.3278060853481293,-88.48348236083984,0.0,-0.2382490038871765,-0.013196712359786034,0.5753232836723328,0.09183595329523087,-88.59520721435547,0.0
1213,1.0085859298706055,0.0013401508331298828,-0.028585433959960938,-0.024559497833251953,-0.15674829483032227,0.30086469650268555,0.07610072195529938,-88.37477111816406,0.0,-0.238371804356575,-0.013980453833937645,0.5768275856971741,0.09160026162862778,-88.59439086914062,0.0
1218,1.0002851486206055,0.0013401508331298828,-0.025899887084960938,0.1586465835571289,0.3928699493408203,0.16345977783203125,0.07673732936382294,-88.51481628417969,0.0,-0.23757857084274292,-0.01201610453426838,0.5776448845863342,0.09228041023015976,-88.59187316894531,0.0
1223,1.0019941329956055,-0.002810239791870117,-0.012472152709960938,0.021242141723632812,-0.09567975997924805,0.4535360336303711,-0.1606815606355667,-89.26898193359375,0.0,-0.23747235536575317,-0.012494503520429134,0.579912543296814,0.09056074172258377,-88.59723663330078,0.0
1228,1.0015058517456055,0.002804994583129883,-0.026388168334960938,0.08231067657470703,0.2249307632446289,0.3924674987792969,0.1604166030883789,-88.48219299316406,0.0,-0.2370608001947403,-0.011369849555194378,0.5818749070167542,0.09147278964519501,-88.59529113769531,0.0
1233,1.0000410079956055,0.003537416458129883,-0.019552230834960938,0.31131839752197266,-0.23308420181274414,0.0107879638671875,0.2026311457157135,-88.86174774169922,0.0,-0.23550420999526978,-0.012535270303487778,0.5819288492202759,0.09381844103336334,-88.5983657836914,0.0
1238,1.0002851486206055,-0.0006129741668701172,-0.024679183959960938,0.11284542083740234,-0.004076957702636719,-0.3556241989135742,-0.03510013595223427,-88.58624267578125,0.0,-0.23493997752666473,-0.012555655092000961,0.5801507234573364,0.09345147013664246,-88.59830474853516,0.0
1243,1.0056562423706055,0.002560853958129883,-0.022726058959960938,0.23498249053955078,0.0569920539855957,-0.03501319885253906,0.14586332440376282,-88.6972427368164,0.0,-0.23376506567001343,-0.012270694598555565,0.5799756646156311,0.09499447792768478,-88.5987319946289,0.0
1248,0.9971113204956055,0.0015842914581298828,-0.021993637084960938,0.1586465835571289,-0.04987812042236328,0.13292551040649414,0.09101397544145584,-88.73313903808594,0.0,-0.23297183215618134,-0.012520085088908672,0.5806403160095215,0.09575345367193222,-88.59994506835938,0.0
1253,0.9988203048706055,-0.0018336772918701172,-0.029073715209960938,0.005974769592285156,-0.04987812042236328,-0.08081483840942383,-0.10514140874147415,-88.32939147949219,0.0,-0.23294195532798767,-0.01276947557926178,0.5802362561225891,0.09434282779693604,-88.59825897216797,0.0
1259,1.0059003829956055,0.003781557083129883,-0.026876449584960938,-0.19249820709228516,-0.09567975997924805,0.316131591796875,0.2153184860944748,-88.45442199707031,0.0,-0.23390445113182068,-0.013247874565422535,0.5818169116973877,0.09425368160009384,-88.59770965576172,0.0
1264,1.0000410079956055,0.005002260208129883,-0.025655746459960938,-0.024559497833251953,0.24019813537597656,0.13292551040649414,0.2864999771118164,-88.50275421142578,0.0,-0.23405180871486664,-0.011806685477495193,0.5826144814491272,0.09548661857843399,-88.59559631347656,0.0
1269,1.0007734298706055,0.0013401508331298828,-0.023946762084960938,-0.1772313117980957,0.1638622283935547,0.20926141738891602,0.07670364528894424,-88.62712860107422,0.0,-0.23493796586990356,-0.010987374000251293,0.5836607813835144,0.09447219222784042,-88.59500885009766,0.0
1274,1.0046796798706055,0.00011944770812988281,-0.022726058959960938,-0.11616230010986328,0.2249307632446289,-0.09608221054077148,0.006810229737311602,-88.70416259765625,0.0,-0.23551878333091736,-0.009862720035016537,0.5831803679466248,0.09326789528131485,-88.59467315673828,0.0
1279,1.0024824142456055,0.005490541458129883,-0.020040512084960938,0.41818857192993164,-0.08041238784790039,0.13292551040649414,0.3137400448322296,-88.81256866455078,0.0,-0.23342783749103546,-0.01026478223502636,0.5838450193405151,0.09692087024450302,-88.59663391113281,0.0
1284,1.0029706954956055,0.0006077289581298828,-0.030294418334960938,-0.08562803268432617,-0.15674829483032227,0.11765861511230469,0.03470133990049362,-88.26957702636719,0.0,-0.2338559776544571,-0.011048523709177971,0.5844333171844482,0.0960511863231659,-88.59507751464844,0.0
1289,1.0051679611206055,-0.0003688335418701172,-0.017110824584960938,-0.1466965675354004,-0.1109471321105957,-0.08081483840942383,-0.021020907908678055,-89.02452850341797,0.0,-0.23458945751190186,-0.011603259481489658,0.5840292572975159,0.09448718279600143,-88.59869384765625,0.0
1294,1.0005292892456055,0.0008518695831298828,-0.025655746459960938,0.11284542083740234,-0.5384278297424316,-0.1266164779663086,0.048766668885946274,-88.53032684326172,0.0,-0.23402522504329681,-0.014295398257672787,0.5833961963653564,0.09472130239009857,-88.60088348388672,0.0
1299,1.0012617111206055,0.0015842914581298828,-0.022481918334960938,-0.2077655792236328,-0.04987812042236328,0.1787271499633789,0.09063591063022614,-88.71053314208984,0.0,-0.2350640594959259,-0.014544788748025894,0.5842898488044739,0.09366076439619064,-88.60191345214844,0.0
1304,1.0049238204956055,0.002316713333129883,-0.023214340209960938,-0.009292125701904297,0.2249307632446289,0.026055335998535156,0.13205206394195557,-88.67009735107422,0.0,-0.23511052131652832,-0.013420134782791138,0.5844201445579529,0.09388793259859085,-88.60128784179688,0.0
1309,1.0002851486206055,0.0003635883331298828,-0.025655746459960938,0.25024986267089844,-0.1414813995361328,0.2855973243713379,0.020819291472434998,-88.53062438964844,0.0,-0.23385927081108093,-0.014127541333436966,0.5858481526374817,0.09461059421300888,-88.60148620605469,0.0
1314,1.0041913986206055,0.003537416458129883,-0.027364730834960938,-0.2077655792236328,0.40813684463500977,0.5451393127441406,0.20175734162330627,-88.42606353759766,0.0,-0.23489810526371002,-0.012086857110261917,0.5885738730430603,0.09434051811695099,-88.59822082519531,0.0
1319,1.0034589767456055,-0.002810239791870117,-0.018819808959960938,0.23498249053955078,0.3623356819152832,0.316131591796875,-0.16043122112751007,-88.91363525390625,0.0,-0.23372319340705872,-0.010275178588926792,0.5901545286178589,0.09369832277297974,-88.59866333007812,0.0
1324,0.9978437423706055,-0.0001246929168701172,-0.023214340209960938,-0.10089540481567383,0.28599977493286133,-0.05028057098388672,-0.007157879415899515,-88.66726684570312,0.0,-0.23422767221927643,-0.008845179341733456,0.5899031162261963,0.09248201549053192,-88.59773254394531,0.0
1329,1.0049238204956055,0.004758119583129883,-0.012228012084960938,-0.13142967224121094,-0.08041238784790039,0.22452878952026367,0.2712623178958893,-89.25193786621094,0.0,-0.2348848134279251,-0.009247241541743279,0.5910257697105408,0.09309657663106918,-88.60276794433594,0.0
1334,1.0017499923706055,0.002316713333129883,-0.030538558959960938,0.08231067657470703,-0.32468748092651367,-0.1266164779663086,0.13244424760341644,-88.24885559082031,0.0,-0.23447325825691223,-0.010870679281651974,0.5903927087783813,0.09378384053707123,-88.60187530517578,0.0
1339,0.9975996017456055,0.0010960102081298828,-0.023702621459960938,0.18918085098266602,-0.37048912048339844,-0.30982255935668945,0.06293007731437683,-88.6374740600586,0.0,-0.23352734744548798,-0.012723124586045742,0.588843584060669,0.09450475871562958,-88.60396575927734,0.0
1344,1.0017499923706055,0.002560853958129883,-0.020772933959960938,-0.19249820709228516,-0.20254993438720703,0.23979568481445312,0.14643800258636475,-88.80305480957031,0.0,-0.23448984324932098,-0.013735874556005001,0.5900425910949707,0.09391620755195618,-88.60638427734375,0.0
1349,1.0037031173706055,0.003537416458129883,-0.027364730834960938,-0.009292125701904297,-0.26361894607543945,0.2550630569458008,0.20185542106628418,-88.42530059814453,0.0,-0.2345363050699234,-0.015053968876600266,0.591317892074585,0.09463249891996384,-88.60641479492188,0.0
1354,0.9980878829956055,-0.0003688335418701172,-0.025899887084960938,0.05177640914916992,0.08752632141113281,-0.09608221054077148,-0.021165965124964714,-88.51338958740234,0.0,-0.23427742719650269,-0.014616337604820728,0.5908374786376953,0.09407228231430054,-88.6053237915039,0.0
1359,1.0049238204956055,0.003049135208129883,-0.023214340209960938,-0.024559497833251953,0.1638622283935547,0.30086469650268555,0.17379969358444214,-88.6653060913086,0.0,-0.23440022766590118,-0.013797026127576828,0.5923417806625366,0.09451259672641754,-88.60493469238281,0.0
1364,1.0000410079956055,-0.003786802291870117,-0.029806137084960938,0.1586465835571289,-0.2178173065185547,0.22452878952026367,-0.2168615609407425,-88.27909851074219,0.0,-0.2336069941520691,-0.01488611288368702,0.5934644341468811,0.09310612827539444,-88.60372161865234,0.0
1369,0.9983320236206055,0.003049135208129883,-0.018331527709960938,-0.13142967224121094,0.20966386795043945,0.026055335998535156,0.17496442794799805,-88.93359375,0.0,-0.23426413536071777,-0.013837793841958046,0.5935947299003601,0.09302997589111328,-88.6050033569336,0.0
1374,1.0034589767456055,0.003049135208129883,-0.026876449584960938,-0.07036113739013672,0.5150070190429688,-0.01974630355834961,0.17403742671012878,-88.4559326171875,0.0,-0.23461593687534332,-0.011262758634984493,0.5934960246086121,0.0932505801320076,-88.60139465332031,0.0
1379,1.0017499923706055,0.0006077289581298828,-0.024679183959960938,0.06704378128051758,-0.2178173065185547,-0.1266164779663086,0.034748926758766174,-88.58831787109375,0.0,-0.23428072035312653,-0.012351845391094685,0.5928629636764526,0.09317215532064438,-88.60238647460938,0.0
1384,1.0076093673706055,0.002804994583129883,-0.026632308959960938,-0.08562803268432617,-0.2483515739440918,0.33139896392822266,0.15944455564022064,-88.47758483886719,0.0,-0.23470886051654816,-0.013593602925539017,0.5945199728012085,0.09321258962154388,-88.60274505615234,0.0
1389,1.0059003829956055,0.002560853958129883,-0.017110824584960938,-0.3146357536315918,-0.04987812042236328,-0.20295238494873047,0.14584404230117798,-89.01461791992188,0.0,-0.23628203570842743,-0.013842993415892124,0.5935052037239075,0.09201992303133011,-88.60588836669922,0.0
1394,1.0022382736206055,-0.0015895366668701172,-0.023702621459960938,0.11284542083740234,-0.3399543762207031,-0.24875402450561523,-0.09084486961364746,-88.64218139648438,0.0,-0.2357178032398224,-0.015542765147984028,0.5922614336013794,0.09129743278026581,-88.60783386230469,0.0
1399,0.9997968673706055,0.002072572708129883,-0.022970199584960938,0.4945244789123535,0.2249307632446289,0.2855973243713379,0.11874229460954666,-88.67852020263672,0.0,-0.23324517905712128,-0.014418111182749271,0.5936894416809082,0.09394510835409164,-88.60721588134766,0.0
1405,1.0093183517456055,0.00011944770812988281,-0.028341293334960938,-0.05509376525878906,-0.09567975997924805,0.2550630569458008,0.006777993403375149,-88.39156341552734,0.0,-0.23352064192295074,-0.014896510168910027,0.5949647426605225,0.09306098520755768,-88.60618591308594,0.0
1410,0.9963788986206055,0.0015842914581298828,-0.027608871459960938,-0.2077655792236328,0.13332796096801758,0.08712387084960938,0.0910680741071701,-88.4101791381836,0.0,-0.23476722836494446,-0.01409654226154089,0.5954874753952026,0.09180915355682373,-88.60401153564453,0.0
1415,1.0073652267456055,0.002072572708129883,-0.024435043334960938,0.5250587463378906,0.48447275161743164,0.3924674987792969,0.11784661561250687,-88.60549926757812,0.0,-0.23214194178581238,-0.011674178764224052,0.5974498391151428,0.09459865838289261,-88.60161590576172,0.0
1420,1.0005292892456055,-0.002810239791870117,-0.030294418334960938,0.17391395568847656,-0.03461122512817383,0.2855973243713379,-0.16085556149482727,-88.25826263427734,0.0,-0.2312723696231842,-0.011847235262393951,0.5988778471946716,0.09367164969444275,-88.59938049316406,0.0
1425,0.9983320236206055,0.003537416458129883,-0.020040512084960938,-0.039826393127441406,0.14859485626220703,0.23979568481445312,0.20297591388225555,-88.83222961425781,0.0,-0.23147150874137878,-0.011104260571300983,0.6000768542289734,0.0942394882440567,-88.60027313232422,0.0
1430,1.0044355392456055,0.002072572708129883,-0.020772933959960938,-0.08562803268432617,-0.2178173065185547,0.22452878952026367,0.11819983273744583,-88.80934143066406,0.0,-0.23189964890480042,-0.012193347327411175,0.6011995077133179,0.09398204833269119,-88.60282135009766,0.0
1435,1.0083417892456055,-0.0001246929168701172,-0.025411605834960938,0.25024986267089844,-0.2483515739440918,-0.1876850128173828,-0.007083025295287371,-88.55635833740234,0.0,-0.23064839839935303,-0.013435104861855507,0.6002610921859741,0.09451766312122345,-88.60372924804688,0.0
1440,1.0007734298706055,0.002804994583129883,-0.025655746459960938,-0.024559497833251953,-0.5689620971679688,0.423001766204834,0.1605369746685028,-88.52274322509766,0.0,-0.23077119886875153,-0.01627991534769535,0.6023761034011841,0.09485717117786407,-88.60598754882812,0.0
1445,0.9997968673706055,-0.0001246929168701172,-0.019063949584960938,0.18918085098266602,-0.004076957702636719,-0.17241811752319336,-0.0071445307694375515,-88.90760040283203,0.0,-0.22982528805732727,-0.016300300136208534,0.6015140414237976,0.09508399665355682,-88.60811614990234,0.0
1450,1.0056562423706055,0.002316713333129883,-0.024679183959960938,0.005974769592285156,-0.23308420181274414,-0.23348665237426758,0.13195136189460754,-88.58804321289062,0.0,-0.2297954112291336,-0.01746572181582451,0.6003466248512268,0.09537100791931152,-88.60913848876953,0.0
1455,0.9995527267456055,0.004025697708129883,-0.020040512084960938,-0.07036113739013672,0.13332796096801758,0.16345977783203125,0.23071108758449554,-88.8284683227539,0.0,-0.23014721274375916,-0.01679908111691475,0.601163923740387,0.09596575051546097,-88.6100082397461,0.0
1460,1.0015058517456055,0.003293275833129883,-0.024679183959960938,-0.16196393966674805,0.1638622283935547,0.3772001266479492,0.18834923207759857,-88.57588958740234,0.0,-0.23095703125,-0.015979770570993423,0.6030499339103699,0.09580560773611069,-88.60896301269531,0.0
1465,1.0039472579956055,0.002072572708129883,-0.020284652709960938,-0.2077655792236328,0.45393848419189453,0.27032995223999023,0.11825846880674362,-88.83647918701172,0.0,-0.2319958657026291,-0.013710077852010727,0.6044015884399414,0.09493044018745422,-88.6082992553711,0.0
1470,0.9990644454956055,0.0010960102081298828,-0.021261215209960938,0.14337968826293945,0.5302743911743164,0.8962841033935547,0.06284131109714508,-88.77924346923828,0.0,-0.23127897083759308,-0.011058705858886242,0.6088830232620239,0.09541892260313034,-88.60684967041016,0.0
1475,1.0027265548706055,0.003049135208129883,-0.018331527709960938,0.05177640914916992,0.31653404235839844,0.11765861511230469,0.17419789731502533,-88.93827056884766,0.0,-0.23102009296417236,-0.009476035833358765,0.609471321105957,0.09622415900230408,-88.60758972167969,0.0
1480,1.0032148361206055,-0.0003688335418701172,-0.019796371459960938,-0.1466965675354004,0.07225894927978516,0.07185697555541992,-0.02106078341603279,-88.86933898925781,0.0,-0.23175357282161713,-0.00911474134773016,0.6098306179046631,0.09468019753694534,-88.60905456542969,0.0
1485,1.0015058517456055,0.004025697708129883,-0.022481918334960938,0.03650951385498047,-0.03461122512817383,0.056589603424072266,0.23024943470954895,-88.69358825683594,0.0,-0.2315710186958313,-0.009287797845900059,0.6101135611534119,0.0958036407828331,-88.60981750488281,0.0
1490,1.0049238204956055,0.004269838333129883,-0.024435043334960938,-0.08562803268432617,-0.06514549255371094,0.13292551040649414,0.2433716356754303,-88.58601379394531,0.0,-0.23199915885925293,-0.009613525122404099,0.6107782125473022,0.09640341252088547,-88.60997772216797,0.0
1495,1.0051679611206055,0.005246400833129883,-0.023702621459960938,-0.16196393966674805,-0.15674829483032227,0.056589603424072266,0.29896530508995056,-88.61649322509766,0.0,-0.23280897736549377,-0.01039726659655571,0.611061155796051,0.09700529277324677,-88.61080169677734,0.0
1500,1.0034589767456055,0.0003635883331298828,-0.023214340209960938,-0.08562803268432617,0.10279369354248047,-0.17241811752319336,0.02075471356511116,-88.67457580566406,0.0,-0.2332371175289154,-0.00988329853862524,0.6101990938186646,0.09605113416910172,-88.61073303222656,0.0
1505,1.0005292892456055,0.002804994583129883,-0.028829574584960938,-0.10089540481567383,0.17912960052490234,0.08712387084960938,0.16056227684020996,-88.34172821044922,0.0,-0.23374159634113312,-0.008987650275230408,0.6106346845626831,0.09599743783473969,-88.60797882080078,0.0
1510,1.0022382736206055,0.003537416458129883,-0.027608871459960938,-0.07036113739013672,0.2249307632446289,-0.09608221054077148,0.20214886963367462,-88.40916442871094,0.0,-0.23409339785575867,-0.007862996309995651,0.6101542711257935,0.09638365358114243,-88.60548400878906,0.0
1515,1.0000410079956055,0.0010960102081298828,-0.025655746459960938,0.1586465835571289,0.255465030670166,0.056589603424072266,0.06277350336313248,-88.5290756225586,0.0,-0.23330016434192657,-0.006585671100765467,0.6104372143745422,0.0969386175274849,-88.60369110107422,0.0
1520,1.0039472579956055,0.0006077289581298828,-0.024923324584960938,0.08231067657470703,0.1638622283935547,0.3924674987792969,0.03467271476984024,-88.57748413085938,0.0,-0.2328886091709137,-0.005766360089182854,0.6123995780944824,0.0969163253903389,-88.60269927978516,0.0
1525,1.0010175704956055,0.004758119583129883,-0.027608871459960938,0.08231067657470703,0.04172468185424805,-0.05028057098388672,0.27223747968673706,-88.39685821533203,0.0,-0.23247705399990082,-0.005557736847549677,0.6121481657028198,0.09853793680667877,-88.60107421875,0.0
1530,1.0015058517456055,0.0010960102081298828,-0.025411605834960938,-0.2077655792236328,-0.15674829483032227,0.1481928825378418,0.0626821368932724,-88.54517364501953,0.0,-0.2335158884525299,-0.006341478321701288,0.6128891110420227,0.09725836664438248,-88.60147094726562,0.0
1535,1.0022382736206055,0.0018284320831298828,-0.024190902709960938,0.18918085098266602,-0.3399543762207031,0.07185697555541992,0.10449692606925964,-88.61338806152344,0.0,-0.23256997764110565,-0.00804125051945448,0.6132484078407288,0.09824775904417038,-88.60324096679688,0.0
1540,1.0015058517456055,0.0006077289581298828,-0.022481918334960938,0.4029216766357422,-0.1414813995361328,0.23979568481445312,0.03475918620824814,-88.71356201171875,0.0,-0.23055537045001984,-0.008748657070100307,0.6144474148750305,0.0998099222779274,-88.60470581054688,0.0
1545,1.0012617111206055,0.002316713333129883,-0.027608871459960938,0.06704378128051758,-0.04987812042236328,0.04132270812988281,0.13252002000808716,-88.41497039794922,0.0,-0.23022015392780304,-0.008998047560453415,0.614654004573822,0.10036864131689072,-88.60364532470703,0.0
1550,1.0059003829956055,0.0006077289581298828,-0.019063949584960938,0.2655167579650879,-0.29415321350097656,0.13292551040649414,0.0346098355948925,-88.91370391845703,0.0,-0.22889256477355957,-0.010468813590705395,0.6153186559677124,0.10123331844806671,-88.60724639892578,0.0
1556,1.0029706954956055,-0.0003688335418701172,-0.023702621459960938,0.21971559524536133,0.3928699493408203,0.056589603424072266,-0.02106413058936596,-88.64604949951172,0.0,-0.22779399156570435,-0.008504464291036129,0.6156015992164612,0.1014808714389801,-88.6055679321289,0.0
1561,1.0024824142456055,-0.0003688335418701172,-0.023702621459960938,0.021242141723632812,0.1638622283935547,0.13292551040649414,-0.021074384450912476,-88.64539337158203,0.0,-0.22766654193401337,-0.007521290797740221,0.6163991689682007,0.10076026618480682,-88.60486602783203,0.0
1566,1.0039472579956055,0.0010960102081298828,-0.021505355834960938,0.005974769592285156,-0.08041238784790039,0.10239124298095703,0.06253548711538315,-88.77127075195312,0.0,-0.2276366651058197,-0.007923352532088757,0.6169111132621765,0.10052584111690521,-88.60641479492188,0.0
1571,1.0015058517456055,0.002316713333129883,-0.023946762084960938,0.05177640914916992,-0.1109471321105957,0.07185697555541992,0.13250020146369934,-88.62388610839844,0.0,-0.227377787232399,-0.008478088304400444,0.6172704100608826,0.1010037362575531,-88.60708618164062,0.0
1576,1.0022382736206055,0.004025697708129883,-0.019063949584960938,0.021242141723632812,-0.2788858413696289,-0.05028057098388672,0.23009751737117767,-88.88626098632812,0.0,-0.22727157175540924,-0.009872517548501492,0.61701899766922,0.10200020670890808,-88.61039733886719,0.0
1581,1.0039472579956055,0.003293275833129883,-0.019063949584960938,0.18918085098266602,-0.2788858413696289,0.10239124298095703,0.18791437149047852,-88.89603424072266,0.0,-0.22632566094398499,-0.011266946792602539,0.6175309419631958,0.10353225469589233,-88.61375427246094,0.0
1586,1.0019941329956055,0.002316713333129883,-0.015157699584960938,0.1281123161315918,-0.04987812042236328,0.07185697555541992,0.13245832920074463,-89.12326049804688,0.0,-0.22568510472774506,-0.011516337282955647,0.6178902387619019,0.10436784476041794,-88.61751556396484,0.0
1591,1.0061445236206055,0.003049135208129883,-0.026876449584960938,-0.22303247451782227,-0.06514549255371094,0.13292551040649414,0.17357322573661804,-88.46005249023438,0.0,-0.22680026292800903,-0.011842064559459686,0.6185548901557922,0.10373730212450027,-88.61675262451172,0.0
1596,1.0039472579956055,0.005978822708129883,-0.023214340209960938,-0.08562803268432617,-0.4468250274658203,-0.1266164779663086,0.3411192297935486,-88.63217163085938,0.0,-0.22722840309143066,-0.014076190069317818,0.6179218292236328,0.10494726896286011,-88.61907958984375,0.0
1601,1.0041913986206055,-0.002321958541870117,-0.025899887084960938,-0.009292125701904297,-0.04987812042236328,0.423001766204834,-0.13243885338306427,-88.51664733886719,0.0,-0.22727486491203308,-0.014325580559670925,0.6200368404388428,0.10326672345399857,-88.61862182617188,0.0
1606,1.0059003829956055,-0.0011012554168701172,-0.03200340270996094,0.17391395568847656,-0.18728303909301758,-0.004478931427001953,-0.06269542127847672,-88.1766357421875,0.0,-0.2264052927494049,-0.015261995606124401,0.6200144290924072,0.10298819839954376,-88.61650848388672,0.0
1611,1.0010175704956055,0.002560853958129883,-0.025899887084960938,0.25024986267089844,0.14859485626220703,0.13292551040649414,0.14652761816978455,-88.51065826416016,0.0,-0.22515404224395752,-0.014519020915031433,0.6206790804862976,0.10453032702207565,-88.61504364013672,0.0
1616,1.0027265548706055,0.0013401508331298828,-0.023702621459960938,0.08231067657470703,-0.004076957702636719,-0.06554794311523438,0.07655476778745651,-88.64372253417969,0.0,-0.22474248707294464,-0.014539405703544617,0.6203513145446777,0.10474670678377151,-88.61526489257812,0.0
1621,1.0032148361206055,0.003781557083129883,-0.025411605834960938,0.08231067657470703,0.011190414428710938,-0.17241811752319336,0.2159026712179184,-88.53302764892578,0.0,-0.22433093190193176,-0.014483453705906868,0.6194892525672913,0.10591933131217957,-88.6146469116211,0.0
1626,0.9985761642456055,0.003293275833129883,-0.030050277709960938,0.3265857696533203,0.24019813537597656,0.27032995223999023,0.18887366354465485,-88.26599884033203,0.0,-0.22269800305366516,-0.01328246295452118,0.6208409070968628,0.10811087489128113,-88.6110610961914,0.0
1631,1.0056562423706055,0.002316713333129883,-0.030050277709960938,-0.024559497833251953,-0.12621402740478516,0.5909409523010254,0.13193219900131226,-88.28336334228516,0.0,-0.22282080352306366,-0.013913532719016075,0.6237956285476685,0.10815247893333435,-88.60944366455078,0.0
1636,1.0054121017456055,0.0018284320831298828,-0.021749496459960938,0.005974769592285156,-0.40102338790893555,0.11765861511230469,0.10417302697896957,-88.75637817382812,0.0,-0.22279092669487,-0.01591864973306656,0.6243839263916016,0.10815484076738358,-88.61244201660156,0.0
1641,1.0039472579956055,0.004025697708129883,-0.025899887084960938,0.06704378128051758,-0.37048912048339844,0.07185697555541992,0.22967097163200378,-88.50447082519531,0.0,-0.2224557101726532,-0.017771095037460327,0.6247432231903076,0.10932139307260513,-88.61354064941406,0.0
1646,1.0046796798706055,-0.003054380416870117,-0.025899887084960938,0.2960515022277832,-0.46209192276000977,0.30086469650268555,-0.17412957549095154,-88.51305389404297,0.0,-0.22097545862197876,-0.02008155547082424,0.6262475252151489,0.10884777456521988,-88.61515045166016,0.0
1651,1.0007734298706055,0.003537416458129883,-0.029806137084960938,0.2960515022277832,-0.2178173065185547,0.4535360336303711,0.2024317979812622,-88.28209686279297,0.0,-0.21949520707130432,-0.021170642226934433,0.6285151839256287,0.11095935851335526,-88.61395263671875,0.0
1656,1.0002851486206055,0.006955385208129883,-0.025411605834960938,0.1281123161315918,-0.08041238784790039,0.1787271499633789,0.39826568961143494,-88.49124908447266,0.0,-0.2188546508550644,-0.02157270349562168,0.6294088363647461,0.11356406658887863,-88.61351013183594,0.0
1661,1.0029706954956055,0.003293275833129883,-0.029317855834960938,0.17391395568847656,0.13332796096801758,0.0107879638671875,0.18805092573165894,-88.31513977050781,0.0,-0.21798507869243622,-0.02090606279671192,0.6294627785682678,0.11493783444166183,-88.61080932617188,0.0
1666,1.0037031173706055,-0.0011012554168701172,-0.022726058959960938,-0.1772313117980957,0.255465030670166,0.07185697555541992,-0.06284835934638977,-88.70140075683594,0.0,-0.21887123584747314,-0.01962873712182045,0.6298220753669739,0.11284059286117554,-88.61016082763672,0.0
1671,0.9975996017456055,0.0003635883331298828,-0.021505355834960938,0.1281123161315918,0.34706830978393555,0.23979568481445312,0.020877351984381676,-88.76488494873047,0.0,-0.21823067963123322,-0.017893396317958832,0.6310210824012756,0.11284743249416351,-88.6094970703125,0.0
1676,1.0034589767456055,-0.0006129741668701172,-0.018087387084960938,0.23498249053955078,-0.019343852996826172,0.3466658592224121,-0.034994080662727356,-88.96675872802734,0.0,-0.2170557677745819,-0.0179901160299778,0.632754385471344,0.1130029559135437,-88.6120376586914,0.0
1681,1.0024824142456055,-0.0015895366668701172,-0.03127098083496094,-0.11616230010986328,-0.12621402740478516,0.08712387084960938,-0.09080397337675095,-88.21101379394531,0.0,-0.2176365852355957,-0.018621185794472694,0.6331899762153625,0.11103246361017227,-88.60992431640625,0.0
1686,1.0068769454956055,-0.0011012554168701172,-0.031026840209960938,0.09757804870605469,-0.1414813995361328,-0.06554794311523438,-0.06263657659292221,-88.23387908935547,0.0,-0.21714869141578674,-0.019328592345118523,0.6328622102737427,0.11032990366220474,-88.6080551147461,0.0
1691,1.0061445236206055,0.004025697708129883,-0.021993637084960938,0.25024986267089844,-0.43155765533447266,-0.03501319885253906,0.2291909009218216,-88.7269515991211,0.0,-0.21589744091033936,-0.021486381068825722,0.6326871514320374,0.11238477379083633,-88.61101531982422,0.0
1696,1.0044355392456055,-0.0011012554168701172,-0.025655746459960938,-0.13142967224121094,-0.23308420181274414,0.2550630569458008,-0.0627981424331665,-88.5354995727539,0.0,-0.21655458211898804,-0.022651802748441696,0.6339624524116516,0.11053553968667984,-88.61165618896484,0.0
1702,0.9993085861206055,0.0018284320831298828,-0.025655746459960938,0.21971559524536133,-0.1414813995361328,0.19399404525756836,0.10479927808046341,-88.5256118774414,0.0,-0.2154560089111328,-0.023359209299087524,0.6349323987960815,0.11158744990825653,-88.61177062988281,0.0
1707,1.0044355392456055,0.0003635883331298828,-0.027364730834960938,0.005974769592285156,-0.019343852996826172,0.3772001266479492,0.020732389762997627,-88.43928527832031,0.0,-0.21542015671730042,-0.023475272580981255,0.6371955871582031,0.11100117862224579,-88.61070251464844,0.0
1712,1.0061445236206055,0.0008518695831298828,-0.028585433959960938,-0.16196393966674805,0.13332796096801758,-0.03501319885253906,0.04849088191986084,-88.37189483642578,0.0,-0.21622997522354126,-0.022808631882071495,0.6370205283164978,0.10976920276880264,-88.60840606689453,0.0
1717,1.0017499923706055,-0.0008571147918701172,-0.023214340209960938,-0.1466965675354004,0.20966386795043945,-0.1266164779663086,-0.04901009798049927,-88.67156982421875,0.0,-0.21696345508098602,-0.02176031284034252,0.6363874673843384,0.10795478522777557,-88.60780334472656,0.0
1722,1.0056562423706055,0.002804994583129883,-0.016622543334960938,-0.22303247451782227,0.026457786560058594,0.22452878952026367,0.15978819131851196,-89.03965759277344,0.0,-0.21807861328125,-0.02162802405655384,0.6375101208686829,0.10720162093639374,-88.61062622070312,0.0
1727,0.9993085861206055,0.0015842914581298828,-0.020772933959960938,-0.16196393966674805,0.07225894927978516,0.3772001266479492,0.09081632643938065,-88.8056869506836,0.0,-0.21888843178749084,-0.02126672863960266,0.6393961310386658,0.10628535598516464,-88.61160278320312,0.0
1732,1.0015058517456055,0.0008518695831298828,-0.021749496459960938,0.09757804870605469,-0.08041238784790039,-0.01974630355834961,0.04872364550828934,-88.75495910644531,0.0,-0.21840053796768188,-0.02166878990828991,0.6392974257469177,0.10637667775154114,-88.61298370361328,0.0
1737,1.0110273361206055,0.0003635883331298828,-0.021993637084960938,0.08231067657470703,-0.4773592948913574,0.1481928825378418,0.020599985495209694,-88.75363159179688,0.0,-0.217988982796669,-0.024055587127804756,0.6400383710861206,0.10619964450597763,-88.61631774902344,0.0
1742,1.0000410079956055,0.006711244583129883,-0.024923324584960938,0.14337968826293945,-0.04987812042236328,-0.09608221054077148,0.3843851089477539,-88.52152252197266,0.0,-0.217272087931633,-0.024304978549480438,0.639557957649231,0.10881072282791138,-88.61592102050781,0.0
1747,1.0051679611206055,-0.002077817916870117,-0.027608871459960938,-0.10089540481567383,-0.17201566696166992,0.316131591796875,-0.11839329451322556,-88.42221069335938,0.0,-0.2177765667438507,-0.025165056809782982,0.6411386132240295,0.1067591980099678,-88.6154556274414,0.0
1752,1.0046796798706055,0.00011944770812988281,-0.025655746459960938,-0.07036113739013672,-0.09567975997924805,0.316131591796875,0.006809751503169537,-88.53718566894531,0.0,-0.21812836825847626,-0.025643454864621162,0.6427192687988281,0.10572795569896698,-88.61540222167969,0.0
1757,0.9997968673706055,0.0015842914581298828,-0.026388168334960938,0.08231067657470703,-0.23308420181274414,-0.004478931427001953,0.09075997024774551,-88.48538970947266,0.0,-0.21771681308746338,-0.026808876544237137,0.6426968574523926,0.10603462904691696,-88.61567687988281,0.0
1762,1.0010175704956055,-0.0018336772918701172,-0.027853012084960938,0.11284542083740234,-0.37048912048339844,-0.01974630355834961,-0.10491444915533066,-88.40272521972656,0.0,-0.21715258061885834,-0.028661321848630905,0.6425981521606445,0.10515695065259933,-88.6160659790039,0.0
1767,1.0039472579956055,0.002316713333129883,-0.022237777709960938,0.06704378128051758,0.04172468185424805,-0.03501319885253906,0.13218334317207336,-88.7242202758789,0.0,-0.21681736409664154,-0.02845269814133644,0.6424230933189392,0.10567405819892883,-88.6166000366211,0.0
1772,0.9980878829956055,0.003781557083129883,-0.030050277709960938,0.18918085098266602,0.5150070190429688,0.10239124298095703,0.21698299050331116,-88.26187896728516,0.0,-0.21587145328521729,-0.025877663865685463,0.642935037612915,0.10737180709838867,-88.61162567138672,0.0
1777,1.0066328048706055,0.002072572708129883,-0.022481918334960938,0.18918085098266602,-0.1109471321105957,0.056589603424072266,0.11793763935565948,-88.71515655517578,0.0,-0.21492554247379303,-0.026432398706674576,0.6432179808616638,0.10838322341442108,-88.61288452148438,0.0
1782,1.0044355392456055,-0.0011012554168701172,-0.018331527709960938,-0.009292125701904297,0.1638622283935547,-0.11134910583496094,-0.06280817091464996,-88.95255279541016,0.0,-0.21497200429439545,-0.02561308816075325,0.6426612138748169,0.10717160999774933,-88.61438751220703,0.0
1787,1.0019941329956055,0.002804994583129883,-0.020772933959960938,-0.009292125701904297,-0.17201566696166992,0.22452878952026367,0.16035962104797363,-88.80155944824219,0.0,-0.21501846611499786,-0.026473166421055794,0.6437838673591614,0.10748745501041412,-88.61651611328125,0.0
1792,1.0046796798706055,0.0010960102081298828,-0.020284652709960938,0.08231067657470703,-0.04987812042236328,0.30086469650268555,0.06249149888753891,-88.84165954589844,0.0,-0.21460691094398499,-0.026722557842731476,0.6452881693840027,0.10759007185697556,-88.61830139160156,0.0
1797,1.0027265548706055,0.004513978958129883,-0.027853012084960938,-0.10089540481567383,-0.20254993438720703,-0.17241811752319336,0.257827490568161,-88.38813781738281,0.0,-0.2151113897562027,-0.027735307812690735,0.6444261074066162,0.10811086744070053,-88.61774444580078,0.0
1802,0.9997968673706055,-0.0001246929168701172,-0.022970199584960938,0.021242141723632812,-0.4926261901855469,0.2550630569458008,-0.007143944036215544,-88.68384552001953,0.0,-0.21500517427921295,-0.030198438093066216,0.6457014083862305,0.10743268579244614,-88.62064361572266,0.0
1807,1.0002851486206055,0.003537416458129883,-0.026876449584960938,0.14337968826293945,-0.08041238784790039,-0.004478931427001953,0.20254731178283691,-88.4476318359375,0.0,-0.21428827941417694,-0.030600499361753464,0.6456789970397949,0.10879123210906982,-88.61986541748047,0.0
1812,1.0061445236206055,-0.0011012554168701172,-0.03249168395996094,-0.26883411407470703,0.11806058883666992,0.2855973243713379,-0.06267925351858139,-88.1493148803711,0.0,-0.21563245356082916,-0.030010197311639786,0.6471070051193237,0.10629100352525711,-88.61608123779297,0.0
1817,0.9995527267456055,0.0010960102081298828,-0.021749496459960938,0.06704378128051758,-0.12621402740478516,0.316131591796875,0.06280996650457382,-88.75189971923828,0.0,-0.21529723703861237,-0.03064126707613468,0.6486876606941223,0.1063285619020462,-88.61763000488281,0.0
1822,1.0071210861206055,0.003293275833129883,-0.028829574584960938,-0.10089540481567383,0.3318009376525879,0.2550630569458008,0.18727923929691315,-88.34965515136719,0.0,-0.21580171585083008,-0.028982263058423996,0.6499629616737366,0.1063772663474083,-88.61416625976562,0.0
1827,1.0022382736206055,-0.0003688335418701172,-0.027364730834960938,-0.43677330017089844,0.08752632141113281,0.40773487091064453,-0.021077554672956467,-88.43586730957031,0.0,-0.2179855853319168,-0.028544630855321884,0.6520016193389893,0.10334289073944092,-88.6125259399414,0.0
1832,0.9995527267456055,0.002316713333129883,-0.019308090209960938,0.08231067657470703,-0.1109471321105957,0.3466658592224121,0.1327722817659378,-88.88543701171875,0.0,-0.21757403016090393,-0.029099365696310997,0.6537349224090576,0.10395140200853348,-88.61492919921875,0.0
1837,1.0041913986206055,0.004025697708129883,-0.019063949584960938,0.05177640914916992,0.14859485626220703,0.529871940612793,0.22965013980865479,-88.888427734375,0.0,-0.21731515228748322,-0.028356391936540604,0.656384289264679,0.10506145656108856,-88.61605072021484,0.0
1842,1.0054121017456055,0.003537416458129883,-0.025167465209960938,0.21971559524536133,-0.2483515739440918,-0.01974630355834961,0.2015240639448166,-88.55198669433594,0.0,-0.216216579079628,-0.02959815040230751,0.6562855839729309,0.10680694878101349,-88.61685180664062,0.0
1847,0.9978437423706055,0.002560853958129883,-0.025167465209960938,0.21971559524536133,-0.12621402740478516,0.20926141738891602,0.14699611067771912,-88.54774475097656,0.0,-0.21511800587177277,-0.030229220166802406,0.6573318839073181,0.10817062854766846,-88.61701202392578,0.0
1853,1.0027265548706055,0.004758119583129883,-0.024435043334960938,0.18918085098266602,-0.20254993438720703,0.3772001266479492,0.2717961370944977,-88.57785034179688,0.0,-0.21398292481899261,-0.03144451975822449,0.6595950722694397,0.11041051894426346,-88.61795043945312,0.0
1858,0.9993085861206055,-0.0001246929168701172,-0.024435043334960938,0.005974769592285156,-0.004076957702636719,-0.06554794311523438,-0.007147184573113918,-88.5992660522461,0.0,-0.21395304799079895,-0.03146490454673767,0.6592673063278198,0.10964114218950272,-88.61784362792969,0.0
1863,1.0010175704956055,0.002560853958129883,-0.022481918334960938,-0.039826393127441406,0.08752632141113281,-0.17241811752319336,0.14653970301151276,-88.70509338378906,0.0,-0.21415218710899353,-0.03102727234363556,0.6584052443504333,0.10969409346580505,-88.61800384521484,0.0
1868,1.0041913986206055,0.003049135208129883,-0.030294418334960938,0.25024986267089844,0.27073240280151367,0.056589603424072266,0.1738937348127365,-88.26329803466797,0.0,-0.21290093660354614,-0.029673609882593155,0.6586881875991821,0.11137295514345169,-88.61425018310547,0.0
1873,1.0019941329956055,0.0018284320831298828,-0.028829574584960938,-0.07036113739013672,0.28599977493286133,0.20926141738891602,0.10450958460569382,-88.34861755371094,0.0,-0.2132527381181717,-0.02824361063539982,0.6597344875335693,0.1109769269824028,-88.61103057861328,0.0
1878,1.0061445236206055,0.002560853958129883,-0.025411605834960938,0.005974769592285156,0.026457786560058594,0.2550630569458008,0.14578326046466827,-88.5458984375,0.0,-0.21322286128997803,-0.028111321851611137,0.6610097885131836,0.11124290525913239,-88.61045837402344,0.0
1883,1.0076093673706055,-0.003054380416870117,-0.023214340209960938,-0.039826393127441406,-0.1109471321105957,0.3466658592224121,-0.17363488674163818,-88.6688232421875,0.0,-0.2134220004081726,-0.02866605669260025,0.662743091583252,0.10911162197589874,-88.61140441894531,0.0
1888,1.0029706954956055,0.003293275833129883,-0.024679183959960938,-0.19249820709228516,0.026457786560058594,0.04132270812988281,0.18807432055473328,-88.57797241210938,0.0,-0.21438449621200562,-0.02853376790881157,0.6629496812820435,0.10869144648313522,-88.61104583740234,0.0
1893,1.0012617111206055,0.002804994583129883,-0.017354965209960938,-0.08562803268432617,-0.04987812042236328,0.3466658592224121,0.1604873090982437,-88.99410247802734,0.0,-0.21481263637542725,-0.02878315933048725,0.6646829843521118,0.10861755907535553,-88.6138916015625,0.0
1898,1.0051679611206055,0.0008518695831298828,-0.016622543334960938,-0.039826393127441406,-0.3399543762207031,-0.01974630355834961,0.048550937324762344,-89.05133819580078,0.0,-0.21501177549362183,-0.030482931062579155,0.6645842790603638,0.10801243782043457,-88.61854553222656,0.0
1903,0.9978437423706055,0.00011944770812988281,-0.021261215209960938,-0.039826393127441406,0.1943964958190918,0.13292551040649414,0.00685708224773407,-88.77935791015625,0.0,-0.2152109146118164,-0.029510948807001114,0.6652489304542542,0.10712885856628418,-88.6186752319336,0.0
1908,1.0027265548706055,0.0018284320831298828,-0.027608871459960938,-0.16196393966674805,-0.29415321350097656,0.056589603424072266,0.10443688184022903,-88.41937255859375,0.0,-0.21602073311805725,-0.03098171576857567,0.6655318737030029,0.1063062846660614,-88.61878967285156,0.0
1913,1.0039472579956055,0.0018284320831298828,-0.024679183959960938,0.08231067657470703,-0.1414813995361328,0.16345977783203125,0.10431791841983795,-88.58797454833984,0.0,-0.21560917794704437,-0.0316891223192215,0.6663491725921631,0.1067015752196312,-88.6192855834961,0.0
1918,0.9990644454956055,0.0018284320831298828,-0.024190902709960938,-0.039826393127441406,-0.3399543762207031,0.20926141738891602,0.10482870042324066,-88.60897827148438,0.0,-0.21580831706523895,-0.0333888940513134,0.6673954725265503,0.1064911037683487,-88.62090301513672,0.0
1923,1.0051679611206055,0.004269838333129883,-0.025411605834960938,-0.1466965675354004,-0.04987812042236328,-0.08081483840942383,0.2433067113161087,-88.53152465820312,0.0,-0.21654179692268372,-0.03363828361034393,0.6669914126396179,0.10668918490409851,-88.62054443359375,0.0
1928,1.0029706954956055,0.002804994583129883,-0.023214340209960938,0.20444822311401367,0.026457786560058594,0.23979568481445312,0.1601950079202652,-88.6644515991211,0.0,-0.21551956236362457,-0.03350599482655525,0.6681904196739197,0.10806678235530853,-88.62071228027344,0.0
1933,1.0029706954956055,-0.0003688335418701172,-0.018575668334960938,-0.10089540481567383,0.07225894927978516,0.026055335998535156,-0.021066399291157722,-88.93875885009766,0.0,-0.21602404117584229,-0.03314470127224922,0.6683207154273987,0.10669159144163132,-88.62251281738281,0.0
1938,1.0044355392456055,0.0008518695831298828,-0.021993637084960938,-0.26883411407470703,-0.1414813995361328,0.2855973243713379,0.04858133941888809,-88.74468231201172,0.0,-0.2173682153224945,-0.03385210782289505,0.6697487235069275,0.10496325045824051,-88.6240463256836,0.0
1943,1.0039472579956055,-0.002321958541870117,-0.027608871459960938,-0.19249820709228516,-0.26361894607543945,-0.1266164779663086,-0.13246503472328186,-88.419189453125,0.0,-0.21833071112632751,-0.03517020121216774,0.6691156625747681,0.10240086913108826,-88.62397003173828,0.0
1948,1.0024824142456055,0.0003635883331298828,-0.020528793334960938,-0.10089540481567383,-0.2483515739440918,-0.1266164779663086,0.020776133984327316,-88.8266830444336,0.0,-0.21883518993854523,-0.03641195967793465,0.6684826016426086,0.1013476774096489,-88.62657928466797,0.0
1953,1.0022382736206055,0.002560853958129883,-0.021993637084960938,0.08231067657470703,0.17912960052490234,0.056589603424072266,0.14636288583278656,-88.73438262939453,0.0,-0.21842363476753235,-0.03551631048321724,0.6687655448913574,0.10206086933612823,-88.62641906738281,0.0
1958,1.0056562423706055,0.002560853958129883,-0.03249168395996094,0.005974769592285156,-0.4468250274658203,0.22452878952026367,0.14582446217536926,-88.14374542236328,0.0,-0.21839375793933868,-0.03775043413043022,0.6698881983757019,0.10238642990589142,-88.62537384033203,0.0
1963,1.0032148361206055,0.002560853958129883,-0.026388168334960938,0.021242141723632812,-0.20254993438720703,-0.004478931427001953,0.14620505273342133,-88.4861831665039,0.0,-0.21828754246234894,-0.03876318410038948,0.6698657870292664,0.10278811305761337,-88.62544250488281,0.0
1968,1.0027265548706055,0.004269838333129883,-0.03249168395996094,0.23498249053955078,-0.17201566696166992,0.16345977783203125,0.2438490390777588,-88.12812805175781,0.0,-0.21711263060569763,-0.03962326422333717,0.6706830859184265,0.10490836948156357,-88.62294006347656,0.0
1973,1.0000410079956055,-0.004275083541870117,-0.021993637084960938,0.5097918510437012,0.6218776702880859,0.16345977783203125,-0.24487349390983582,-88.71653747558594,0.0,-0.21456366777420044,-0.03651387616991997,0.6715003848075867,0.10507682710886002,-88.6204833984375,0.0
1978,1.0049238204956055,0.0010960102081298828,-0.031026840209960938,-0.009292125701904297,0.14859485626220703,0.30086469650268555,0.06245928630232811,-88.23046112060547,0.0,-0.21461012959480286,-0.035770900547504425,0.673004686832428,0.10474280267953873,-88.61711120605469,0.0
1983,1.0024824142456055,0.002560853958129883,-0.021017074584960938,-0.024559497833251953,-0.06514549255371094,0.16345977783203125,0.1463303118944168,-88.79008483886719,0.0,-0.21473293006420135,-0.03609662875533104,0.6738219857215881,0.10490169376134872,-88.61860656738281,0.0
1988,1.0000410079956055,0.002804994583129883,-0.025167465209960938,-0.009292125701904297,-0.5689620971679688,0.3924674987792969,0.16065646708011627,-88.54945373535156,0.0,-0.21477939188480377,-0.03894143924117088,0.6757843494415283,0.10523200035095215,-88.62096405029297,0.0
1993,1.0010175704956055,0.005490541458129883,-0.029806137084960938,-0.039826393127441406,-0.18728303909301758,-0.1876850128173828,0.3141227066516876,-88.26579284667969,0.0,-0.21497853100299835,-0.03987785428762436,0.6748459339141846,0.106444351375103,-88.61949920654297,0.0
1999,1.0015058517456055,0.00011944770812988281,-0.022970199584960938,0.05177640914916992,-0.12621402740478516,-0.27928829193115234,0.006831762380897999,-88.68609619140625,0.0,-0.21471965312957764,-0.040508925914764404,0.6734495162963867,0.10602919012308121,-88.62057495117188,0.0
2004,1.0024824142456055,0.0013401508331298828,-0.023946762084960938,0.05177640914916992,-0.03461122512817383,-0.05028057098388672,0.0765729546546936,-88.62947082519531,0.0,-0.2144089937210083,-0.040716592222452164,0.6731478571891785,0.10613841563463211,-88.62084197998047,0.0
2009,1.0068769454956055,0.003781557083129883,-0.015157699584960938,-0.3451700210571289,-0.23308420181274414,-0.17241811752319336,0.21516203880310059,-89.11109161376953,0.0,-0.21613484621047974,-0.04188201203942299,0.672285795211792,0.10516183078289032,-88.62532043457031,0.0
2014,1.0027265548706055,0.0006077289581298828,-0.023458480834960938,-0.009292125701904297,-0.12621402740478516,0.23979568481445312,0.03471611812710762,-88.65937805175781,0.0,-0.21618130803108215,-0.042513083666563034,0.6734848022460938,0.1046392023563385,-88.62618255615234,0.0
2019,1.0032148361206055,0.005490541458129883,-0.019308090209960938,-0.039826393127441406,0.10279369354248047,0.07185697555541992,0.3135155737400055,-88.85370635986328,0.0,-0.21638044714927673,-0.04199911653995514,0.6738440990447998,0.10585388541221619,-88.62721252441406,0.0
2024,1.0027265548706055,0.00011944770812988281,-0.023458480834960938,0.005974769592285156,0.1943964958190918,0.7130780220031738,0.006823373027145863,-88.6598129272461,0.0,-0.21635057032108307,-0.04102713242173195,0.6774094700813293,0.10521405190229416,-88.62647247314453,0.0
2029,0.9995527267456055,0.005002260208129883,-0.026876449584960938,-0.024559497833251953,0.3012666702270508,-0.03501319885253906,0.28663066029548645,-88.43333435058594,0.0,-0.21647337079048157,-0.03952080011367798,0.677234411239624,0.10631829500198364,-88.62367248535156,0.0
2034,1.0005292892456055,-0.0011012554168701172,-0.024435043334960938,-0.039826393127441406,0.1638622283935547,0.0107879638671875,-0.06304508447647095,-88.59957122802734,0.0,-0.21667250990867615,-0.03870148956775665,0.6772883534431458,0.10497602820396423,-88.62269592285156,0.0
2039,1.0015058517456055,-0.0013453960418701172,-0.021749496459960938,-0.11616230010986328,-0.08041238784790039,0.23979568481445312,-0.07695142179727554,-88.7535400390625,0.0,-0.21725332736968994,-0.03910355269908905,0.6784873604774475,0.10317002981901169,-88.62398529052734,0.0
2044,1.0032148361206055,-0.002077817916870117,-0.029317855834960938,0.2655167579650879,-0.1414813995361328,-0.1266164779663086,-0.11861788481473923,-88.3218765258789,0.0,-0.21592573821544647,-0.03981095924973488,0.6778542995452881,0.10299056768417358,-88.62265014648438,0.0
2049,1.0027265548706055,0.005490541458129883,-0.021261215209960938,0.03650951385498047,-0.03461122512817383,0.22452878952026367,0.313655823469162,-88.7454833984375,0.0,-0.21574318408966064,-0.03998401388525963,0.6789769530296326,0.10459452122449875,-88.6236572265625,0.0
2054,1.0015058517456055,0.004269838333129883,-0.021749496459960938,0.1586465835571289,-0.17201566696166992,-0.21821928024291992,0.24421681463718414,-88.732177734375,0.0,-0.21494995057582855,-0.04084409400820732,0.6778858304023743,0.10632507503032684,-88.625244140625,0.0
2059,1.0041913986206055,-0.0015895366668701172,-0.028829574584960938,0.2655167579650879,-0.15674829483032227,0.07185697555541992,-0.09065618366003036,-88.35303497314453,0.0,-0.21362236142158508,-0.04162783548235893,0.6782451272010803,0.1063140332698822,-88.62418365478516,0.0
2064,1.0010175704956055,-0.0011012554168701172,-0.018331527709960938,0.1281123161315918,-0.2483515739440918,-0.09608221054077148,-0.06302255392074585,-88.948974609375,0.0,-0.21298180520534515,-0.04286959394812584,0.6777647137641907,0.10580745339393616,-88.62760925292969,0.0
2069,1.0073652267456055,-0.0003688335418701172,-0.020772933959960938,-0.024559497833251953,0.48447275161743164,0.6062078475952148,-0.02097363770008087,-88.8184814453125,0.0,-0.21310460567474365,-0.04044723138213158,0.6807957291603088,0.10483004152774811,-88.6264877319336,0.0
2074,1.0056562423706055,-0.0001246929168701172,-0.025167465209960938,-0.07036113739013672,0.1943964958190918,-0.05028057098388672,-0.007101971190422773,-88.56640625,0.0,-0.2134564071893692,-0.039475247263908386,0.6805443167686462,0.10372550785541534,-88.6251220703125,0.0
2079,1.0005292892456055,0.0010960102081298828,-0.021749496459960938,0.03650951385498047,0.24019813537597656,0.11765861511230469,0.06274869292974472,-88.75312042236328,0.0,-0.21327385306358337,-0.03827425837516785,0.6811326146125793,0.1036304458975792,-88.62479400634766,0.0
2084,1.0059003829956055,0.004025697708129883,-0.022481918334960938,0.06704378128051758,0.28599977493286133,-0.01974630355834961,0.22924403846263885,-88.69929504394531,0.0,-0.21293863654136658,-0.03684426099061966,0.6810339093208313,0.1048104539513588,-88.6238784790039,0.0
2089,1.0015058517456055,-0.0011012554168701172,-0.023946762084960938,-0.2077655792236328,0.0569920539855957,-0.1571507453918457,-0.06298438459634781,-88.62882995605469,0.0,-0.21397747099399567,-0.03655930235981941,0.6802481412887573,0.10264735668897629,-88.6236343383789,0.0
2094,0.9980878829956055,0.0015842914581298828,-0.022726058959960938,0.1281123161315918,-0.40102338790893555,0.04132270812988281,0.09092347323894501,-88.69245910644531,0.0,-0.21333691477775574,-0.03856441751122475,0.6804547309875488,0.10320457816123962,-88.62609100341797,0.0
2099,1.0066328048706055,0.002316713333129883,-0.016134262084960938,-0.11616230010986328,-0.2483515739440918,-0.23348665237426758,0.1318461000919342,-89.07232666015625,0.0,-0.21391773223876953,-0.03980617597699165,0.679287314414978,0.10282070934772491,-88.63033294677734,0.0
2104,1.0002851486206055,-0.002566099166870117,-0.023946762084960938,0.021242141723632812,0.3012666702270508,0.11765861511230469,-0.14694231748580933,-88.62075805664062,0.0,-0.21381151676177979,-0.03829984366893768,0.6798756122589111,0.10124325752258301,-88.62877655029297,0.0
2109,1.0041913986206055,0.004269838333129883,-0.024190902709960938,-0.2841014862060547,-0.04987812042236328,0.1787271499633789,0.24355046451091766,-88.59869384765625,0.0,-0.2152320295572281,-0.038549233227968216,0.6807692646980286,0.10079103708267212,-88.62882232666016,0.0
2114,1.0032148361206055,0.00011944770812988281,-0.015157699584960938,-0.16196393966674805,-0.2483515739440918,0.0107879638671875,0.006821139715611935,-89.13435363769531,0.0,-0.21604184806346893,-0.03979099169373512,0.6808232069015503,0.09935372322797775,-88.63346099853516,0.0
2119,0.9978437423706055,0.0015842914581298828,-0.025411605834960938,-0.13142967224121094,0.20966386795043945,0.026055335998535156,0.09093980491161346,-88.53836059570312,0.0,-0.21669898927211761,-0.03874267265200615,0.6809535026550293,0.09864433854818344,-88.63178253173828,0.0
2124,1.0041913986206055,0.00011944770812988281,-0.023702621459960938,-0.13142967224121094,-0.04987812042236328,-0.11134910583496094,0.006813386455178261,-88.64784240722656,0.0,-0.2173561304807663,-0.03899206221103668,0.6803967356681824,0.09737329185009003,-88.63214111328125,0.0
2129,1.0078535079956055,-0.0011012554168701172,-0.021505355834960938,-0.11616230010986328,-0.3399543762207031,0.1481928825378418,-0.06259134411811829,-88.77601623535156,0.0,-0.2179369479417801,-0.040691833943128586,0.6811376810073853,0.09571949392557144,-88.63479614257812,0.0
2134,0.9997968673706055,0.003537416458129883,-0.025411605834960938,0.2655167579650879,0.08752632141113281,0.33139896392822266,0.2026539146900177,-88.5300064086914,0.0,-0.21660935878753662,-0.040254201740026474,0.6827946901321411,0.09775790572166443,-88.63365936279297,0.0
2139,1.0046796798706055,0.0008518695831298828,-0.014913558959960938,0.08231067657470703,-0.03461122512817383,0.16345977783203125,0.04857582598924637,-89.1481704711914,0.0,-0.21619780361652374,-0.040427256375551224,0.6836119890213013,0.09783570468425751,-88.63729858398438,0.0
2145,1.0068769454956055,0.0008518695831298828,-0.026144027709960938,-0.11616230010986328,-0.416290283203125,0.16345977783203125,0.048458825796842575,-88.51183319091797,0.0,-0.21677862107753754,-0.04250870645046234,0.6844292879104614,0.09692656248807907,-88.6385269165039,0.0
2150,0.9958906173706055,0.00011944770812988281,-0.023946762084960938,-0.009292125701904297,0.011190414428710938,-0.38615846633911133,0.006870103534311056,-88.6225357055664,0.0,-0.21683438122272491,-0.04244156554341316,0.6821123361587524,0.0962635949254036,-88.63835144042969,0.0
2155,1.0061445236206055,0.002316713333129883,-0.028341293334960938,0.09757804870605469,-0.03461122512817383,0.3466658592224121,0.13187472522258759,-88.3811264038086,0.0,-0.21634648740291595,-0.04261462017893791,0.6838456392288208,0.09698840975761414,-88.63678741455078,0.0
2160,1.0044355392456055,-0.0011012554168701172,-0.026144027709960938,-0.13142967224121094,0.17912960052490234,0.33139896392822266,-0.06279736012220383,-88.5076904296875,0.0,-0.21700362861156464,-0.041718970984220505,0.6855026483535767,0.09525808691978455,-88.6350326538086,0.0
2165,1.0002851486206055,0.00011944770812988281,-0.023458480834960938,-0.16196393966674805,-0.20254993438720703,0.08712387084960938,0.006840018089860678,-88.65653991699219,0.0,-0.21781344711780548,-0.042731720954179764,0.6859382390975952,0.0938575491309166,-88.63618469238281,0.0
2170,1.0049238204956055,0.0018284320831298828,-0.016378402709960938,-0.024559497833251953,0.11806058883666992,0.07185697555541992,0.10423418134450912,-89.06047058105469,0.0,-0.21793624758720398,-0.042141418904066086,0.6862975358963013,0.09380552917718887,-88.63845825195312,0.0
2175,1.0037031173706055,0.0013401508331298828,-0.030538558959960938,-0.009292125701904297,-0.03461122512817383,0.11765861511230469,0.07646626234054565,-88.25558471679688,0.0,-0.2179827094078064,-0.042314473539590836,0.6868858337402344,0.09364251047372818,-88.63605499267578,0.0
2180,0.9993085861206055,0.003293275833129883,-0.023946762084960938,-0.08562803268432617,0.011190414428710938,0.026055335998535156,0.1887664794921875,-88.61434936523438,0.0,-0.21841084957122803,-0.04225851967930794,0.6870161294937134,0.09385828673839569,-88.63585662841797,0.0
2185,1.0037031173706055,0.0006077289581298828,-0.028097152709960938,0.14337968826293945,0.011190414428710938,0.0107879638671875,0.034678246825933456,-88.39613342285156,0.0,-0.21769395470619202,-0.04220256581902504,0.6870700716972351,0.09417162090539932,-88.63418579101562,0.0
