Time,Acc_low_X,Acc_low_Y,Acc_low_Z,Gyro_low_X,Gyro_low_Y,Gyro_low_Z,Acc_X,Acc_Y,Acc_Z,Gyro_X,Gyro_Y,Gyro_Z,Euler_X,Euler_Y,Euler_Z
0,0.0029706954956054688,1.0096409320831299,-0.008077621459960938,0.11284542083740234,-0.20254993438720703,0.1481928825378418,89.51160430908203,-0.1685771346092224,0.0,0.43163374066352844,-0.7747535109519958,0.5668377876281738,86.21356964111328,-0.19101978838443756,0.0
5,0.0005292892456054688,1.0086643695831299,-0.008077621459960938,-0.11616230010986328,-0.26361894607543945,0.49933767318725586,89.5401840209961,-0.030064573511481285,0.0,0.43105292320251465,-0.7760716080665588,0.5693344473838806,87.84524536132812,-0.11272968351840973,0.0
10,0.0015058517456054688,1.0076878070831299,-0.0039272308349609375,-0.39097166061401367,0.11806058883666992,0.6672768592834473,89.76084899902344,-0.08562000095844269,0.0,0.42909806966781616,-0.7754812836647034,0.5726708173751831,88.47444152832031,-0.10341077297925949,0.0
15,0.0032148361206054688,1.0064671039581299,-0.010763168334960938,-0.009292125701904297,-0.26361894607543945,0.3924674987792969,89.36055755615234,-0.18300189077854156,0.0,0.42905160784721375,-0.7767993807792664,0.5746331810951233,88.69386291503906,-0.12411391735076904,0.0
20,-0.00020313262939453125,1.0089085102081299,-0.011251449584960938,-0.32990312576293945,-0.15674829483032227,0.22452878952026367,89.36095428466797,0.011535157449543476,0.0,0.4274020791053772,-0.777583122253418,0.5757558345794678,88.82498168945312,-0.09781195968389511,0.0
25,0.00028514862060546875,1.0047581195831299,-0.017110824584960938,-0.2535672187805176,-0.29415321350097656,0.423001766204834,89.02422332763672,-0.016258085146546364,0.0,0.42613422870635986,-0.7790538668632507,0.5778708457946777,88.85693359375,-0.085527703166008,0.0
30,0.0024824142456054688,1.0084202289581299,-0.014425277709960938,0.03650951385498047,0.2249307632446289,0.49933767318725586,89.16840362548828,-0.14102952182292938,0.0,0.4263167679309845,-0.7779291868209839,0.5803675055503845,88.9013671875,-0.09245306253433228,0.0
35,0.0012617111206054688,1.0091526508331299,-0.008321762084960938,-0.16196393966674805,-0.20254993438720703,-0.11134910583496094,89.52213287353516,-0.07163260132074356,0.0,0.42550694942474365,-0.7789419293403625,0.5798107385635376,88.97794342041016,-0.09074757993221283,0.0
40,0.00028514862060546875,1.0062229633331299,-0.014913558959960938,0.14337968826293945,-0.1414813995361328,0.3772001266479492,89.15071105957031,-0.0162349883466959,0.0,0.42622384428977966,-0.7796493172645569,0.5816967487335205,88.99771881103516,-0.0831243023276329,0.0
45,-0.0016679763793945312,1.0032932758331299,-0.011251449584960938,0.05177640914916992,-0.09567975997924805,0.2855973243713379,89.3504638671875,0.09524822980165482,0.0,0.4264827370643616,-0.7801277041435242,0.5831247568130493,89.03313446044922,-0.06576336175203323,0.0
50,0.004435539245605469,1.0074436664581299,-0.011495590209960938,-0.2077655792236328,0.3928699493408203,0.27032995223999023,89.29927062988281,-0.2522418797016144,0.0,0.4254439175128937,-0.7781633734703064,0.5844764113426208,89.05633544921875,-0.0808972492814064,0.0
55,0.0022382736206054688,1.0057346820831299,-0.015645980834960938,-0.32990312576293945,0.1943964958190918,0.3924674987792969,89.09966278076172,-0.12749674916267395,0.0,0.42379438877105713,-0.7771914005279541,0.586438775062561,89.05843353271484,-0.0838843509554863,0.0
60,-0.0011796951293945312,1.0076878070831299,-0.014181137084960938,-0.3146357536315918,0.27073240280151367,0.636742115020752,89.19094848632812,0.06706921011209488,0.0,0.42222121357917786,-0.7758377194404602,0.5896224975585938,89.06716918945312,-0.07103129476308823,0.0
65,0.004435539245605469,1.0091526508331299,-0.017599105834960938,-0.024559497833251953,0.10279369354248047,0.2855973243713379,88.96965789794922,-0.251792848110199,0.0,0.42209842801094055,-0.775323748588562,0.5910505056381226,89.06008911132812,-0.08346386253833771,0.0
70,0.004435539245605469,1.0067112445831299,-0.011983871459960938,-0.13142967224121094,-0.416290283203125,0.1481928825378418,89.27277374267578,-0.2524239420890808,0.0,0.42144128680229187,-0.7774052023887634,0.5917914509773254,89.07366180419922,-0.09667564183473587,0.0
75,0.0015058517456054688,1.0074436664581299,-0.015645980834960938,-0.16196393966674805,-0.06514549255371094,0.1787271499633789,89.10613250732422,-0.08563107252120972,0.0,0.420631468296051,-0.7777309417724609,0.5926851034164429,89.07493591308594,-0.0962899774312973,0.0
80,0.0012617111206054688,1.0057346820831299,-0.008077621459960938,-0.3146357536315918,-0.2178173065185547,0.2855973243713379,89.53425598144531,-0.0718761682510376,0.0,0.41905829310417175,-0.7788200378417969,0.5941131114959717,89.10051727294922,-0.09587640315294266,0.0
85,-0.0006914138793945312,1.0040256977081299,-0.014181137084960938,0.1281123161315918,0.08752632141113281,0.33139896392822266,89.18983459472656,0.03945231810212135,0.0,0.4196988642215729,-0.778382420539856,0.5957701206207275,89.10609436035156,-0.08792772144079208,0.0
90,-0.0009355545043945312,1.0091526508331299,-0.009054183959960938,-0.23829984664916992,-0.26361894607543945,0.10239124298095703,89.48321533203125,0.053115010261535645,0.0,0.4185073673725128,-0.779700517654419,0.5962820649147034,89.12487030029297,-0.08173127472400665,0.0
96,0.0012617111206054688,1.0023167133331299,-0.0068569183349609375,-0.16196393966674805,-0.12621402740478516,-0.05028057098388672,89.6014633178711,-0.07212190330028534,0.0,0.417697548866272,-0.7803316116333008,0.5960306525230408,89.14801788330078,-0.08184849470853806,0.0
101,0.005656242370605469,1.0091526508331299,-0.009054183959960938,-0.08562803268432617,0.07225894927978516,0.5146050453186035,89.3938980102539,-0.32112324237823486,0.0,0.4171837866306305,-0.7798980474472046,0.5991182923316956,89.15929412841797,-0.09288237988948822,0.0
106,0.003947257995605469,1.0064671039581299,-0.014181137084960938,0.021242141723632812,0.08752632141113281,0.08712387084960938,89.16207122802734,-0.22468456625938416,0.0,0.41729000210762024,-0.7794604301452637,0.5995538830757141,89.1595230102539,-0.09848751872777939,0.0
111,0.0024824142456054688,1.0101292133331299,-0.014181137084960938,-0.009292125701904297,-0.17201566696166992,0.5604066848754883,89.1834487915039,-0.14079144597053528,0.0,0.4172435402870178,-0.7803205251693726,0.6023558974266052,89.1605224609375,-0.10116032510995865,0.0
116,0.005656242370605469,1.0064671039581299,-0.007833480834960938,-0.05509376525878906,0.026457786560058594,0.423001766204834,89.4499740600586,-0.321983277797699,0.0,0.41696807742118835,-0.780188262462616,0.6044709086418152,89.17240142822266,-0.11029648035764694,0.0
121,0.0027265548706054688,1.0111057758331299,-0.008321762084960938,-0.10089540481567383,-0.18728303909301758,0.3772001266479492,89.5037841796875,-0.15449859201908112,0.0,0.41646361351013184,-0.7811246514320374,0.6063569188117981,89.18527221679688,-0.11297648400068283,0.0
126,0.0024824142456054688,1.0042698383331299,-0.011495590209960938,0.2655167579650879,-0.1414813995361328,0.27032995223999023,89.32906341552734,-0.1416175663471222,0.0,0.4177911877632141,-0.7818320393562317,0.6077085733413696,89.19212341308594,-0.11476714164018631,0.0
131,0.0029706954956054688,1.0071995258331299,-0.016378402709960938,-0.009292125701904297,-0.09567975997924805,-0.03501319885253906,89.05317687988281,-0.1689688265323639,0.0,0.4177447259426117,-0.782310426235199,0.6075335144996643,89.1868896484375,-0.11725333333015442,0.0
136,0.0010175704956054688,1.0071995258331299,-0.011983871459960938,-0.3146357536315918,-0.40102338790893555,0.04132270812988281,89.31586456298828,-0.05788162723183632,0.0,0.4161715507507324,-0.7843155264854431,0.6077401041984558,89.19002532958984,-0.11704472452402115,0.0
141,0.0027265548706054688,1.0071995258331299,-0.015401840209960938,0.14337968826293945,0.04172468185424805,0.20926141738891602,89.11029815673828,-0.15508490800857544,0.0,0.41688844561576843,-0.7841069102287292,0.608786404132843,89.18794250488281,-0.11816920340061188,0.0
146,0.004679679870605469,1.0040256977081299,-0.009786605834960938,-0.13142967224121094,-0.04987812042236328,0.27032995223999023,89.38097381591797,-0.26703622937202454,0.0,0.41623130440711975,-0.7843562960624695,0.6101380586624146,89.19381713867188,-0.12343015521764755,0.0
151,0.0010175704956054688,1.0052464008331299,-0.016866683959960938,-0.22303247451782227,-0.1109471321105957,0.33139896392822266,89.03699493408203,-0.05799002945423126,0.0,0.4151161313056946,-0.784911036491394,0.6117950677871704,89.18761444091797,-0.1218293160200119,0.0
156,0.0019941329956054688,1.0032932758331299,-0.012960433959960938,-0.1466965675354004,0.026457786560058594,0.27032995223999023,89.25119018554688,-0.11387071758508682,0.0,0.4143826365470886,-0.7847787737846375,0.6131467223167419,89.18891906738281,-0.12144915759563446,0.0
161,-0.0006914138793945312,1.0074436664581299,-0.010274887084960938,-0.4215059280395508,0.1943964958190918,0.23979568481445312,89.41433715820312,0.03932034224271774,0.0,0.412275105714798,-0.7838068008422852,0.6143457293510437,89.19380950927734,-0.11556487530469894,0.0
166,-0.00044727325439453125,1.0035374164581299,-0.018575668334960938,-0.08562803268432617,-0.12621402740478516,0.5451393127441406,88.93925476074219,0.025532161816954613,0.0,0.41184696555137634,-0.784437894821167,0.6170714497566223,89.185791015625,-0.11196312308311462,0.0
171,-0.0009355545043945312,1.0040256977081299,-0.014425277709960938,0.021242141723632812,-0.004076957702636719,0.13292551040649414,89.17513275146484,0.05338287353515625,0.0,0.4119531810283661,-0.7844582796096802,0.6177361011505127,89.18558502197266,-0.10718100517988205,0.0
176,0.0010175704956054688,1.0059788227081299,-0.012960433959960938,-0.23829984664916992,-0.29415321350097656,0.056589603424072266,89.25960540771484,-0.05795115604996681,0.0,0.41076168417930603,-0.7859290242195129,0.6180190443992615,89.1865234375,-0.10721877217292786,0.0
181,0.0037031173706054688,1.0096409320831299,-0.015890121459960938,0.05177640914916992,0.04172468185424805,0.23979568481445312,89.07417297363281,-0.21012002229690552,0.0,0.41102057695388794,-0.7857204079627991,0.6192180514335632,89.18368530273438,-0.10984867066144943,0.0
186,0.0005292892456054688,1.0025608539581299,-0.009786605834960938,-0.009292125701904297,0.10279369354248047,0.10239124298095703,89.43990325927734,-0.03024713322520256,0.0,0.4109741151332855,-0.7852064371109009,0.6197299957275391,89.19051361083984,-0.10721249133348465,0.0
191,0.0024824142456054688,1.0081760883331299,-0.011739730834960938,-0.07036113739013672,0.0569920539855957,0.3924674987792969,89.31809997558594,-0.14106854796409607,0.0,0.4106222987174988,-0.7849214673042297,0.6216923594474792,89.19351196289062,-0.10782115906476974,0.0
196,0.0024824142456054688,1.0067112445831299,-0.008077621459960938,-0.024559497833251953,-0.37048912048339844,0.43826913833618164,89.5190658569336,-0.14127883315086365,0.0,0.4104995131492615,-0.7867739200592041,0.6238837242126465,89.20171356201172,-0.11048109084367752,0.0
201,-0.0006914138793945312,1.0050022602081299,-0.009054183959960938,0.09757804870605469,0.45393848419189453,0.2550630569458008,89.48233032226562,0.03941631317138672,0.0,0.41098740696907043,-0.784504234790802,0.6251590251922607,89.20919036865234,-0.10452736169099808,0.0
206,0.00028514862060546875,1.0018284320831299,-0.014913558959960938,-0.16196393966674805,0.11806058883666992,0.20926141738891602,89.14698028564453,-0.016306187957525253,0.0,0.4101775884628296,-0.7839139103889465,0.626205325126648,89.2068862915039,-0.10179977864027023,0.0
211,0.0024824142456054688,1.0067112445831299,-0.013448715209960938,-0.1466965675354004,-0.04987812042236328,0.16345977783203125,89.2217025756836,-0.14127077162265778,0.0,0.40944409370422363,-0.7841632962226868,0.6270226240158081,89.20652770996094,-0.10298465937376022,0.0
216,0.006388664245605469,1.0067112445831299,-0.013204574584960938,-0.16196393966674805,0.14859485626220703,0.36193323135375977,89.16519927978516,-0.3635671138763428,0.0,0.4086342751979828,-0.7834203243255615,0.6288322806358337,89.20477294921875,-0.10834051668643951,0.0
221,-0.00044727325439453125,1.0037815570831299,-0.0073451995849609375,0.25024986267089844,-0.09567975997924805,0.33139896392822266,89.57996368408203,0.025529639795422554,0.0,0.4098855257034302,-0.7838987112045288,0.6304892897605896,89.21456909179688,-0.10574928671121597,0.0
226,0.00028514862060546875,1.0067112445831299,-0.0036830902099609375,-0.375704288482666,0.13332796096801758,0.5756735801696777,89.78975677490234,-0.01622878760099411,0.0,0.4080069959163666,-0.7832320928573608,0.633367657661438,89.2256088256836,-0.10309406369924545,0.0
231,0.0012617111206054688,1.0106174945831299,-0.0034389495849609375,-0.3146357536315918,-0.20254993438720703,0.6520094871520996,89.79232788085938,-0.0715307891368866,0.0,0.4064338207244873,-0.7842448353767395,0.636627733707428,89.23650360107422,-0.10339232534170151,0.0
236,0.00028514862060546875,1.0045139789581299,-0.0012416839599609375,0.05177640914916992,0.011190414428710938,0.5756735801696777,89.92733001708984,-0.016264382749795914,0.0,0.4066927134990692,-0.7841888666152954,0.6395061016082764,89.2516098022461,-0.10146390646696091,0.0
242,0.0034589767456054688,1.0057346820831299,-0.0071010589599609375,-0.11616230010986328,0.011190414428710938,0.316131591796875,89.5500259399414,-0.19704903662204742,0.0,0.4061118960380554,-0.7841328978538513,0.641086757183075,89.25733947753906,-0.10342546552419662,0.0
247,4.100799560546875e-05,1.0067112445831299,-0.0056362152099609375,-0.2841014862060547,0.24019813537597656,0.6214752197265625,89.67921447753906,-0.002333885058760643,0.0,0.4044072926044464,-0.7826917171478271,0.6448156237602234,89.26441192626953,-0.09991949796676636,0.0
252,0.0015058517456054688,1.0054905414581299,-0.015401840209960938,-0.23829984664916992,0.31653404235839844,0.04132270812988281,89.11824035644531,-0.08579768985509872,0.0,0.40321579575538635,-0.7811090350151062,0.6450222134590149,89.26026916503906,-0.09808175265789032,0.0
257,0.0007734298706054688,1.0057346820831299,-0.012228012084960938,0.11284542083740234,0.14859485626220703,0.423001766204834,89.3020248413086,-0.04405832290649414,0.0,0.4037800133228302,-0.780366063117981,0.6471372246742249,89.26165771484375,-0.09627427160739899,0.0
262,0.0034589767456054688,1.0059788227081299,-0.009542465209960938,0.14337968826293945,-0.09567975997924805,0.04132270812988281,89.42192077636719,-0.1969972550868988,0.0,0.4044969081878662,-0.7808444499969482,0.6473438143730164,89.26551055908203,-0.09872055053710938,0.0
267,0.005656242370605469,1.0059788227081299,-0.015401840209960938,-0.16196393966674805,-0.06514549255371094,0.3772001266479492,89.06558227539062,-0.322111576795578,0.0,0.40368708968162537,-0.7811701893806458,0.6492298245429993,89.26085662841797,-0.1033504456281662,0.0
272,0.004191398620605469,1.0052464008331299,-0.016622543334960938,0.11284542083740234,-0.019343852996826172,0.07185697555541992,89.02301025390625,-0.2388620674610138,0.0,0.4042513072490692,-0.7812669277191162,0.6495891213417053,89.25689697265625,-0.10601639747619629,0.0
277,0.0034589767456054688,1.0057346820831299,-0.015157699584960938,0.08231067657470703,0.11806058883666992,0.16345977783203125,89.11434936523438,-0.19703157246112823,0.0,0.4046628475189209,-0.7806766033172607,0.6504064202308655,89.254638671875,-0.10713569074869156,0.0
282,0.0032148361206054688,1.0062229633331299,-0.011983871459960938,-0.29936838150024414,-0.004076957702636719,0.0107879638671875,89.29353332519531,-0.18304377794265747,0.0,0.4031659960746765,-0.7806969881057739,0.6504603624343872,89.2538833618164,-0.10854963958263397,0.0
287,0.0024824142456054688,1.0020725727081299,-0.016622543334960938,0.08231067657470703,-0.2483515739440918,0.36193323135375977,89.03911590576172,-0.1419178694486618,0.0,0.4035775363445282,-0.7819387316703796,0.6522700190544128,89.25040435791016,-0.11037208884954453,0.0
292,0.0007734298706054688,1.0091526508331299,-0.011983871459960938,-0.22303247451782227,-0.18728303909301758,0.33139896392822266,89.31822204589844,-0.04390924796462059,0.0,0.402462363243103,-0.782875120639801,0.6539270281791687,89.25051879882812,-0.11010898649692535,0.0
297,0.0007734298706054688,1.0084202289581299,-0.008321762084960938,-0.024559497833251953,-0.43155765533447266,0.3466658592224121,89.52515411376953,-0.04394274204969406,0.0,0.4023395776748657,-0.7850329279899597,0.6556603312492371,89.25521087646484,-0.11106912791728973,0.0
302,0.0019941329956054688,1.0108616352081299,-0.012960433959960938,0.03650951385498047,0.27073240280151367,0.1787271499633789,89.25679779052734,-0.11301830410957336,0.0,0.40252211689949036,-0.7836792469024658,0.6565539836883545,89.25541687011719,-0.10977251082658768,0.0
307,0.0005292892456054688,1.0081760883331299,-0.016866683959960938,-0.10089540481567383,0.011190414428710938,0.11765861511230469,89.04106140136719,-0.030075890943408012,0.0,0.40201765298843384,-0.7836232781410217,0.6571422815322876,89.25127410888672,-0.10836110264062881,0.0
312,-0.00020313262939453125,1.0081760883331299,-0.009054183959960938,0.06704378128051758,-0.29415321350097656,0.1787271499633789,89.4853286743164,0.011543789878487587,0.0,0.40235286951065063,-0.7850940227508545,0.658035933971405,89.25553131103516,-0.10779545456171036,0.0
317,0.0017499923706054688,1.0045139789581299,-0.011007308959960938,-0.07036113739013672,-0.12621402740478516,0.056589603424072266,89.36430358886719,-0.09981051087379456,0.0,0.4020010530948639,-0.7857251167297363,0.6583188772201538,89.25698852539062,-0.10828398168087006,0.0
322,0.0010175704956054688,1.0047581195831299,-0.008321762084960938,-0.23829984664916992,0.011190414428710938,0.08712387084960938,89.52193450927734,-0.058024387806653976,0.0,0.40080955624580383,-0.7856691479682922,0.6587544679641724,89.26013946533203,-0.10740882158279419,0.0
327,-0.0026445388793945312,1.0042698383331299,-0.013204574584960938,-0.32990312576293945,-0.416290283203125,0.43826913833618164,89.23173522949219,0.15086330473423004,0.0,0.3991600275039673,-0.7877506017684937,0.6609458327293396,89.25806427001953,-0.10529892146587372,0.0
332,0.0007734298706054688,1.0045139789581299,-0.014181137084960938,0.1586465835571289,0.04172468185424805,0.20926141738891602,89.18998718261719,-0.044110726565122604,0.0,0.3999532461166382,-0.7875419855117798,0.6619921326637268,89.25776672363281,-0.10412153601646423,0.0
337,0.003947257995605469,1.0035374164581299,-0.008077621459960938,-0.024559497833251953,-0.2483515739440918,0.1481928825378418,89.48670959472656,-0.22535555064678192,0.0,0.3998304605484009,-0.7887837290763855,0.6627330780029297,89.26123809814453,-0.10724493116140366,0.0
342,0.0037031173706054688,1.0069553852081299,-0.009786605834960938,-0.23829984664916992,0.0569920539855957,0.5146050453186035,89.40463256835938,-0.21069654822349548,0.0,0.3986389636993408,-0.7884987592697144,0.6653060913085938,89.26228332519531,-0.1085660457611084,0.0
347,0.0032148361206054688,1.0113499164581299,-0.007833480834960938,0.08231067657470703,-0.04987812042236328,0.16345977783203125,89.52030181884766,-0.1821233183145523,0.0,0.3990505039691925,-0.7887481451034546,0.6661233901977539,89.26663208007812,-0.10993626713752747,0.0
352,0.0012617111206054688,1.0086643695831299,-0.010519027709960938,-0.11616230010986328,-0.03461122512817383,0.4535360336303711,89.39822387695312,-0.07166581600904465,0.0,0.3984696865081787,-0.7889211773872375,0.6683910489082336,89.26805114746094,-0.10952874273061752,0.0
357,-0.0019121170043945312,1.0052464008331299,-0.0058803558349609375,-0.2535672187805176,-0.04987812042236328,-0.004478931427001953,89.64756774902344,0.10898245871067047,0.0,0.3972018361091614,-0.7891705632209778,0.6683686375617981,89.27246856689453,-0.1065140813589096,0.0
362,0.0015058517456054688,1.0093967914581299,-0.012960433959960938,0.05177640914916992,0.10279369354248047,0.4840707778930664,89.25942993164062,-0.08546864241361618,0.0,0.3974607288837433,-0.7886565923690796,0.6707890033721924,89.27252960205078,-0.1056973859667778,0.0
367,-0.0011796951293945312,1.0071995258331299,-0.010763168334960938,-0.23829984664916992,-0.15674829483032227,0.1481928825378418,89.38407897949219,0.06710454076528549,0.0,0.3962692320346832,-0.7894403338432312,0.6715299487113953,89.27297973632812,-0.10395140200853348,0.0
372,-0.0009355545043945312,1.0076878070831299,-0.010030746459960938,0.05177640914916992,-0.23308420181274414,0.6825437545776367,89.42720794677734,0.05319172516465187,0.0,0.39652812480926514,-0.7906057834625244,0.674942672252655,89.27545928955078,-0.10283603519201279,0.0
377,0.0019941329956054688,1.0091526508331299,-0.011983871459960938,-0.05509376525878906,0.04172468185424805,0.2550630569458008,89.3102798461914,-0.1132110208272934,0.0,0.39625266194343567,-0.7903971672058105,0.6762179732322693,89.27568817138672,-0.10277818143367767,0.0
382,-0.0014238357543945312,1.0050022602081299,-0.014181137084960938,-0.039826393127441406,-0.004076957702636719,0.16345977783203125,89.18751525878906,0.08116558939218521,0.0,0.3960535228252411,-0.7904175519943237,0.6770352721214294,89.27425384521484,-0.10020671039819717,0.0
387,0.0019941329956054688,1.0079319477081299,-0.010274887084960938,-0.16196393966674805,-0.1414813995361328,0.3772001266479492,89.40504455566406,-0.11335022747516632,0.0,0.39524370431900024,-0.7911249399185181,0.6789212822914124,89.27527618408203,-0.10108743607997894,0.0
393,0.0029706954956054688,1.0054905414581299,-0.015157699584960938,-0.10089540481567383,-0.3399543762207031,0.423001766204834,89.11991119384766,-0.16925916075706482,0.0,0.3947392404079437,-0.7928246855735779,0.6810362935066223,89.27263641357422,-0.10370372980833054,0.0
398,0.0015058517456054688,1.0091526508331299,-0.0068569183349609375,-0.23829984664916992,0.04172468185424805,0.36193323135375977,89.6014175415039,-0.08549439162015915,0.0,0.39330944418907166,-0.7925743460655212,0.6832078695297241,89.27571868896484,-0.1032080128788948,0.0
403,0.0012617111206054688,1.0074436664581299,-0.009054183959960938,-0.2841014862060547,-0.2788858413696289,0.3924674987792969,89.4801025390625,-0.07175365835428238,0.0,0.39188894629478455,-0.7939687967300415,0.6851702332496643,89.27708435058594,-0.10415825992822647,0.0
408,0.0017499923706054688,1.0040256977081299,-0.011495590209960938,-0.13142967224121094,-0.15674829483032227,0.6672768592834473,89.33646392822266,-0.09985850751399994,0.0,0.39123180508613586,-0.7947525382041931,0.6885066032409668,89.27722930908203,-0.10487396270036697,0.0
413,0.0029706954956054688,1.0091526508331299,-0.012472152709960938,-0.07036113739013672,-0.17201566696166992,0.1481928825378418,89.27210998535156,-0.16865122318267822,0.0,0.3908799886703491,-0.795612633228302,0.6892475485801697,89.27681732177734,-0.10656777024269104,0.0
418,-0.00044727325439453125,1.0062229633331299,-0.016622543334960938,0.3571200370788574,-0.1414813995361328,0.423001766204834,89.05323028564453,0.02546490542590618,0.0,0.3926655948162079,-0.7963200211524963,0.6913625597953796,89.27564239501953,-0.10553346574306488,0.0
423,0.0012617111206054688,1.0054905414581299,-0.014181137084960938,0.2655167579650879,-0.06514549255371094,0.46880340576171875,89.18878173828125,-0.07188878953456879,0.0,0.39399316906929016,-0.7966457605361938,0.6937065720558167,89.27582550048828,-0.10541775822639465,0.0
428,0.003947257995605469,1.0091526508331299,-0.011007308959960938,-0.07036113739013672,0.3318009376525879,0.13292551040649414,89.33610534667969,-0.22409555315971375,0.0,0.3936413526535034,-0.7949867844581604,0.694371223449707,89.27625274658203,-0.10530763119459152,0.0
433,0.0015058517456054688,1.0057346820831299,-0.019552230834960938,-0.039826393127441406,0.255465030670166,0.13292551040649414,88.88297271728516,-0.08577071875333786,0.0,0.39344221353530884,-0.7937094569206238,0.6950358748435974,89.27104187011719,-0.10379747301340103,0.0
438,0.0024824142456054688,1.0064671039581299,-0.010274887084960938,0.1281123161315918,0.24019813537597656,-0.01974630355834961,89.39826965332031,-0.14131028950214386,0.0,0.39408278465270996,-0.7925084829330444,0.6949371695518494,89.27328491210938,-0.10308558493852615,0.0
443,0.0010175704956054688,1.0074436664581299,-0.011495590209960938,0.021242141723632812,0.3012666702270508,0.3772001266479492,89.34368896484375,-0.057867929339408875,0.0,0.3941890001296997,-0.7910021543502808,0.6968231797218323,89.2742691040039,-0.10103200376033783,0.0
448,-0.004109382629394531,1.0059788227081299,-0.011495590209960938,0.06704378128051758,-0.2788858413696289,0.04132270812988281,89.30472564697266,0.23403434455394745,0.0,0.3945242166519165,-0.792396605014801,0.6970297694206238,89.27497863769531,-0.09825161844491959,0.0
453,0.00028514862060546875,1.0028049945831299,-0.013448715209960938,-0.08562803268432617,0.011190414428710938,0.4840707778930664,89.23147583007812,-0.01629064790904522,0.0,0.3940960764884949,-0.7923406362533569,0.6994501352310181,89.2740249633789,-0.09718828648328781,0.0
458,0.0012617111206054688,1.0069553852081299,-0.012228012084960938,-0.2841014862060547,-0.12621402740478516,0.08712387084960938,89.30056762695312,-0.0717860534787178,0.0,0.39267557859420776,-0.7929717302322388,0.6998857259750366,89.27294921875,-0.09750192612409592,0.0
463,0.004191398620605469,1.0096409320831299,-0.013692855834960938,-0.039826393127441406,0.13332796096801758,0.07185697555541992,89.18741607666016,-0.23783305287361145,0.0,0.3924764394760132,-0.7923051118850708,0.7002450227737427,89.27172088623047,-0.09853991121053696,0.0
468,-0.0006914138793945312,1.0057346820831299,-0.010519027709960938,-0.4062385559082031,-0.04987812042236328,0.04132270812988281,89.39946746826172,0.0393870510160923,0.0,0.3904452323913574,-0.792554497718811,0.7004516124725342,89.27124786376953,-0.09713274985551834,0.0
473,0.0037031173706054688,1.0020725727081299,-0.009542465209960938,-0.4215059280395508,0.04172468185424805,0.27032995223999023,89.41476440429688,-0.21172359585762024,0.0,0.3883377015590668,-0.7923458814620972,0.7018032670021057,89.2708740234375,-0.09828910231590271,0.0
478,0.0012617111206054688,1.0064671039581299,-0.014913558959960938,-0.11616230010986328,0.3318009376525879,-0.27928829193115234,89.14803314208984,-0.0718182921409607,0.0,0.387756884098053,-0.7906869053840637,0.7004068493843079,89.26885223388672,-0.09633747488260269,0.0
483,-0.00020313262939453125,1.0086643695831299,-0.012960433959960938,-0.05509376525878906,0.40813684463500977,0.6672768592834473,89.26374816894531,0.01153771486133337,0.0,0.3874814212322235,-0.7886462211608887,0.7037432193756104,89.26852416992188,-0.09305855631828308,0.0
488,4.100799560546875e-05,1.0054905414581299,-0.011495590209960938,-0.2841014862060547,-0.15674829483032227,0.2855973243713379,89.344970703125,-0.0023366024252027273,0.0,0.3860609233379364,-0.7894299626350403,0.7051712274551392,89.26800537109375,-0.09278011322021484,0.0
493,0.0037031173706054688,1.0133030414581299,-0.018575668334960938,0.17391395568847656,-0.20254993438720703,0.6062078475952148,88.92912292480469,-0.20935140550136566,0.0,0.3869304955005646,-0.790442705154419,0.7082022428512573,89.26496124267578,-0.09512387216091156,0.0
498,0.0022382736206054688,1.0098850727081299,-0.0029506683349609375,0.03650951385498047,-0.1109471321105957,0.819948673248291,89.78987884521484,-0.12698759138584137,0.0,0.3871130347251892,-0.7909974455833435,0.7123019695281982,89.2711410522461,-0.09603647887706757,0.0
503,-0.00020313262939453125,1.0047581195831299,-0.011739730834960938,0.31131839752197266,-0.26361894607543945,0.6214752197265625,89.33047485351562,0.011582735925912857,0.0,0.3886696398258209,-0.7923155426979065,0.7154093384742737,89.27335357666016,-0.09611872583627701,0.0
508,-0.00020313262939453125,1.0108616352081299,-0.0071010589599609375,0.005974769592285156,0.10279369354248047,0.056589603424072266,89.59735107421875,0.011513302102684975,0.0,0.3886995017528534,-0.7918015718460083,0.7156922817230225,89.27703094482422,-0.09439852088689804,0.0
513,0.006144523620605469,1.0071995258331299,-0.014425277709960938,-0.3146357536315918,-0.09567975997924805,0.23979568481445312,89.1081314086914,-0.34949856996536255,0.0,0.3871263265609741,-0.7922799587249756,0.7168912887573242,89.27359008789062,-0.09772330522537231,0.0
518,0.0007734298706054688,1.0076878070831299,-0.016134262084960938,-0.08562803268432617,-0.06514549255371094,0.20926141738891602,89.08164978027344,-0.04397054389119148,0.0,0.3866981863975525,-0.7926056981086731,0.7179375886917114,89.27103424072266,-0.09744882583618164,0.0
523,0.004191398620605469,1.0023167133331299,-0.0058803558349609375,-0.024559497833251953,0.27073240280151367,0.08712387084960938,89.58721923828125,-0.23958885669708252,0.0,0.3865754008293152,-0.7912520170211792,0.71837317943573,89.27439880371094,-0.09767652302980423,0.0
528,0.004679679870605469,1.0050022602081299,-0.012228012084960938,0.03650951385498047,-0.09567975997924805,0.056589603424072266,89.25360870361328,-0.266769677400589,0.0,0.3867579400539398,-0.7917304039001465,0.7186561226844788,89.27435302734375,-0.10000020265579224,0.0
533,-0.0006914138793945312,1.0052464008331299,-0.014425277709960938,0.11284542083740234,-0.17201566696166992,0.19399404525756836,89.17691802978516,0.03940428048372269,0.0,0.38732215762138367,-0.7925904989242554,0.7196260690689087,89.27384948730469,-0.09933578222990036,0.0
539,0.005900382995605469,1.0074436664581299,-0.011007308959960938,0.05177640914916992,0.026457786560058594,0.7130780220031738,89.28975677490234,-0.33554530143737793,0.0,0.3875810503959656,-0.7924582362174988,0.7231914401054382,89.27427673339844,-0.10175489634275436,0.0
544,0.0012617111206054688,1.0091526508331299,-0.015401840209960938,-0.08562803268432617,0.026457786560058594,0.49933767318725586,89.1226806640625,-0.0716266930103302,0.0,0.3870672881603241,-0.7922995090484619,0.7261874675750732,89.27214050292969,-0.10127419233322144,0.0
549,0.0005292892456054688,1.0037815570831299,-0.011251449584960938,0.06704378128051758,-0.17201566696166992,0.13292551040649414,89.35708618164062,-0.030209891498088837,0.0,0.3874025046825409,-0.7931596040725708,0.7268521189689636,89.27337646484375,-0.10136669129133224,0.0
554,-0.00044727325439453125,1.0098850727081299,-0.013204574584960938,-0.024559497833251953,0.0569920539855957,0.3924674987792969,89.25045013427734,0.025373855605721474,0.0,0.3872797191143036,-0.7928746342658997,0.7288144826889038,89.27301025390625,-0.09974093735218048,0.0
559,-0.0016679763793945312,1.0118381977081299,-0.008810043334960938,-0.16196393966674805,0.14859485626220703,0.5146050453186035,89.49227905273438,0.09444622695446014,0.0,0.38646990060806274,-0.7921316623687744,0.7313874959945679,89.27452087402344,-0.09696000069379807,0.0
564,0.0024824142456054688,1.0059788227081299,-0.013692855834960938,0.08231067657470703,-0.09567975997924805,0.6214752197265625,89.20745849609375,-0.1413731575012207,0.0,0.38688144087791443,-0.7926100492477417,0.7344948649406433,89.27422332763672,-0.09789834916591644,0.0
569,-0.004109382629394531,1.0037815570831299,-0.014669418334960938,-0.10089540481567383,-0.26361894607543945,0.27032995223999023,89.13050079345703,0.23453691601753235,0.0,0.3863769769668579,-0.7939281463623047,0.7358465194702148,89.27223205566406,-0.09574411064386368,0.0
574,-0.0024003982543945312,1.0081760883331299,-0.011495590209960938,0.09757804870605469,-0.2788858413696289,0.6214752197265625,89.33263397216797,0.13640820980072021,0.0,0.38686487078666687,-0.795322597026825,0.7389538884162903,89.2733383178711,-0.09472359716892242,0.0
579,0.005167961120605469,1.0062229633331299,-0.011495590209960938,-0.1772313117980957,-0.08041238784790039,0.30086469650268555,89.28235626220703,-0.2942493259906769,0.0,0.38597872853279114,-0.795724630355835,0.7404581904411316,89.27255249023438,-0.09717226028442383,0.0
584,0.0017499923706054688,1.0045139789581299,-0.009054183959960938,-0.11616230010986328,0.026457786560058594,0.23979568481445312,89.4740219116211,-0.09981244802474976,0.0,0.38539791107177734,-0.7955923676490784,0.7416571974754333,89.27404022216797,-0.09706829488277435,0.0
589,0.007609367370605469,1.0052464008331299,-0.011739730834960938,0.11284542083740234,0.13332796096801758,0.3772001266479492,89.2026596069336,-0.43367135524749756,0.0,0.3859621286392212,-0.7949257493019104,0.7435432076454163,89.27387237548828,-0.0998273715376854,0.0
594,0.0012617111206054688,1.0054905414581299,-0.012960433959960938,0.05177640914916992,-0.03461122512817383,0.423001766204834,89.25802612304688,-0.0718899667263031,0.0,0.3862210214138031,-0.7950987815856934,0.7456582188606262,89.27397155761719,-0.09971655160188675,0.0
599,-0.0014238357543945312,1.0064671039581299,-0.018087387084960938,0.06704378128051758,-0.12621402740478516,0.23979568481445312,88.96725463867188,0.08104244619607925,0.0,0.3865562379360199,-0.7957298755645752,0.746857225894928,89.27122497558594,-0.0985262468457222,0.0
604,0.0012617111206054688,1.0037815570831299,-0.009542465209960938,-0.36043739318847656,-0.004076957702636719,0.04132270812988281,89.45059204101562,-0.07201509177684784,0.0,0.3847540616989136,-0.7957502603530884,0.7470638155937195,89.27123260498047,-0.09828171133995056,0.0
609,-0.0026445388793945312,1.0047581195831299,-0.0058803558349609375,-0.2535672187805176,-0.4926261901855469,0.5146050453186035,89.63233184814453,0.1508004516363144,0.0,0.38348621129989624,-0.7982133626937866,0.7496368288993835,89.27356719970703,-0.09824704378843307,0.0
614,0.0029706954956054688,1.0042698383331299,-0.014913558959960938,-0.08562803268432617,0.011190414428710938,0.36193323135375977,89.13249969482422,-0.16946546733379364,0.0,0.3830580711364746,-0.7981573939323425,0.7514464855194092,89.2717514038086,-0.09889497607946396,0.0
619,0.0022382736206054688,1.0037815570831299,-0.013204574584960938,0.03650951385498047,-0.15674829483032227,0.2855973243713379,89.23558044433594,-0.1277492344379425,0.0,0.38324061036109924,-0.7989411354064941,0.752874493598938,89.27157592773438,-0.09995444864034653,0.0
624,0.0010175704956054688,1.0050022602081299,-0.013448715209960938,-0.22303247451782227,-0.06514549255371094,0.3466658592224121,89.23113250732422,-0.05800708755850792,0.0,0.3821254372596741,-0.7992668747901917,0.7546077966690063,89.27008056640625,-0.09986712783575058,0.0
629,0.006144523620605469,1.0071995258331299,-0.008321762084960938,0.08231067657470703,0.0569920539855957,0.1481928825378418,89.41156768798828,-0.34952250123023987,0.0,0.38253697752952576,-0.7989819049835205,0.7553487420082092,89.27186584472656,-0.1020115464925766,0.0
634,0.0024824142456054688,1.0093967914581299,-0.015645980834960938,-0.39097166061401367,-0.2483515739440918,0.3772001266479492,89.10086059570312,-0.14089056849479675,0.0,0.38058212399482727,-0.8002236485481262,0.7572347521781921,89.26828002929688,-0.10361725091934204,0.0
639,0.0027265548706054688,1.0069553852081299,-0.013448715209960938,-0.11616230010986328,-0.1414813995361328,0.33139896392822266,89.21924591064453,-0.15512681007385254,0.0,0.3800013065338135,-0.8009310364723206,0.758891761302948,89.2672348022461,-0.10481341928243637,0.0
644,0.0024824142456054688,1.0123264789581299,-0.009298324584960938,-0.26883411407470703,0.10279369354248047,-0.06554794311523438,89.45531463623047,-0.14049378037452698,0.0,0.37865713238716125,-0.8004170656204224,0.7585639953613281,89.26770782470703,-0.10464593023061752,0.0
649,0.004435539245605469,1.0037815570831299,-0.011251449584960938,-0.08562803268432617,0.11806058883666992,0.10239124298095703,89.30970001220703,-0.2531627118587494,0.0,0.3782289922237396,-0.7998267412185669,0.759075939655304,89.26768493652344,-0.10547596216201782,0.0
654,0.004435539245605469,1.0106174945831299,-0.013936996459960938,-0.11616230010986328,0.026457786560058594,0.36193323135375977,89.17086791992188,-0.25144219398498535,0.0,0.37764817476272583,-0.7996944785118103,0.7608855962753296,89.26618957519531,-0.10672858357429504,0.0
659,0.0017499923706054688,1.0047581195831299,-0.009786605834960938,0.03650951385498047,0.026457786560058594,-0.2945551872253418,89.43309020996094,-0.09978751838207245,0.0,0.37783071398735046,-0.7995622158050537,0.7594128251075745,89.2679443359375,-0.10653205960988998,0.0
664,0.0032148361206054688,1.0047581195831299,-0.013204574584960938,-0.16196393966674805,-0.03461122512817383,0.6978111267089844,89.22506713867188,-0.18330781161785126,0.0,0.3770208954811096,-0.7997352480888367,0.7629019021987915,89.26673889160156,-0.10742436349391937,0.0
669,0.004435539245605469,1.0062229633331299,-0.009786605834960938,0.03650951385498047,0.08752632141113281,0.33139896392822266,89.38819885253906,-0.2525523900985718,0.0,0.37720343470573425,-0.7992976307868958,0.7645589113235474,89.26805877685547,-0.10834714025259018,0.0
674,0.006144523620605469,1.0089085102081299,-0.010763168334960938,0.1281123161315918,-0.18728303909301758,0.7283453941345215,89.29620361328125,-0.3489225208759308,0.0,0.3778440058231354,-0.8002340197563171,0.7682006359100342,89.26895904541016,-0.11151286214590073,0.0
679,0.0005292892456054688,1.0035374164581299,-0.015645980834960938,-0.1772313117980957,-0.08041238784790039,0.43826913833618164,89.10626983642578,-0.030215468257665634,0.0,0.37695786356925964,-0.8006360530853271,0.7703920006752014,89.2665786743164,-0.1111583337187767,0.0
684,0.0032148361206054688,1.0067112445831299,-0.012228012084960938,-0.024559497833251953,0.14859485626220703,0.1481928825378418,89.28044128417969,-0.18295447528362274,0.0,0.37683507800102234,-0.7998930811882019,0.7711329460144043,89.26658630371094,-0.11108411848545074,0.0
690,0.00028514862060546875,1.0071995258331299,-0.009054183959960938,-0.23829984664916992,-0.04987812042236328,0.10239124298095703,89.48470306396484,-0.016220372170209885,0.0,0.3756435811519623,-0.8001424670219421,0.7716448903083801,89.26741027832031,-0.11046049743890762,0.0
695,-0.0014238357543945312,1.0074436664581299,-0.013936996459960938,-0.19249820709228516,0.27073240280151367,0.3772001266479492,89.20329284667969,0.08096921443939209,0.0,0.37448859214782715,-0.7985180616378784,0.7739080786705017,89.26567840576172,-0.10709784924983978,0.0
700,4.100799560546875e-05,1.0052464008331299,-0.007833480834960938,-0.2841014862060547,-0.2788858413696289,0.2855973243713379,89.55352020263672,-0.0023372515570372343,0.0,0.37306809425354004,-0.7999125123023987,0.7753360867500305,89.26689910888672,-0.10752429068088531,0.0
705,-0.0006914138793945312,1.0069553852081299,-0.016134262084960938,-0.10089540481567383,0.10279369354248047,0.026055335998535156,89.0811996459961,0.03933640569448471,0.0,0.3725636303424835,-0.7993985414505005,0.7754663825035095,89.26471710205078,-0.10568151623010635,0.0
710,0.0005292892456054688,1.0067112445831299,-0.012228012084960938,0.1586465835571289,-0.18728303909301758,0.3924674987792969,89.30343627929688,-0.03012164682149887,0.0,0.3733568489551544,-0.8003349304199219,0.7774287462234497,89.26585388183594,-0.1059262752532959,0.0
715,0.003947257995605469,1.0069553852081299,-0.013448715209960938,-0.2535672187805176,0.011190414428710938,0.1481928825378418,89.2025375366211,-0.2245778739452362,0.0,0.3720889985561371,-0.8002789616584778,0.7781696915626526,89.26403045654297,-0.10693921148777008,0.0
720,-0.00020313262939453125,1.0064671039581299,-0.016622543334960938,-0.2535672187805176,-0.09567975997924805,0.6214752197265625,89.0537338256836,0.011562280356884003,0.0,0.37082114815711975,-0.8007573485374451,0.781277060508728,89.2608871459961,-0.10635063797235489,0.0
725,4.100799560546875e-05,1.0081760883331299,-0.0075893402099609375,-0.13142967224121094,-0.1414813995361328,0.026055335998535156,89.56868743896484,-0.0023304643109440804,0.0,0.37016400694847107,-0.8014647364616394,0.781407356262207,89.26298522949219,-0.10612265765666962,0.0
730,0.0015058517456054688,1.0052464008331299,-0.013936996459960938,0.03650951385498047,0.28599977493286133,0.33139896392822266,89.20106506347656,-0.08582034707069397,0.0,0.3703465461730957,-0.800034761428833,0.7830643653869629,89.26261901855469,-0.10452476888895035,0.0
735,0.0032148361206054688,1.0059788227081299,-0.011007308959960938,-0.2535672187805176,-0.2788858413696289,0.7436127662658691,89.34691619873047,-0.1830902248620987,0.0,0.36907869577407837,-0.8014292120933533,0.786782443523407,89.2621078491211,-0.10660304874181747,0.0
740,0.0012617111206054688,1.0081760883331299,-0.010519027709960938,0.2960515022277832,-0.04987812042236328,0.23979568481445312,89.3979263305664,-0.07170052081346512,0.0,0.3705589473247528,-0.8016785979270935,0.7879814505577087,89.2647705078125,-0.10654214769601822,0.0
745,0.00028514862060546875,1.0103733539581299,-0.0068569183349609375,-0.08562803268432617,0.026457786560058594,0.2855973243713379,89.61083221435547,-0.016169702634215355,0.0,0.3701308071613312,-0.8015463352203369,0.7894094586372375,89.26738739013672,-0.10561630874872208,0.0
750,0.0007734298706054688,1.0050022602081299,-0.008810043334960938,0.06704378128051758,-0.18728303909301758,0.3924674987792969,89.49581909179688,-0.04409199580550194,0.0,0.370466023683548,-0.8024827241897583,0.7913718223571777,89.26972198486328,-0.10600552707910538,0.0
755,-0.0016679763793945312,1.0057346820831299,-0.013936996459960938,0.06704378128051758,0.011190414428710938,0.27032995223999023,89.20040893554688,0.09501387178897858,0.0,0.37080124020576477,-0.8024267554283142,0.7927234768867493,89.26944732666016,-0.1041954979300499,0.0
760,0.004679679870605469,1.0096409320831299,-0.009786605834960938,-0.26883411407470703,-0.1414813995361328,0.026055335998535156,89.3844223022461,-0.26555123925209045,0.0,0.36945706605911255,-0.8031341433525085,0.7928537726402283,89.26911926269531,-0.1062999814748764,0.0
765,4.100799560546875e-05,1.0045139789581299,-0.012228012084960938,-0.16196393966674805,0.255465030670166,0.5146050453186035,89.30256652832031,-0.002338853431865573,0.0,0.3686472475528717,-0.8018568158149719,0.7954267859458923,89.26860809326172,-0.10413288325071335,0.0
770,0.0015058517456054688,1.0091526508331299,-0.0027065277099609375,-0.4520401954650879,-0.03461122512817383,0.19399404525756836,89.82415008544922,-0.08549606055021286,0.0,0.3663870394229889,-0.8020298480987549,0.7963967323303223,89.27116394042969,-0.10414352267980576,0.0
775,0.003947257995605469,1.0064671039581299,-0.012228012084960938,-0.08562803268432617,-0.12621402740478516,0.316131591796875,89.2685546875,-0.2246902734041214,0.0,0.36595889925956726,-0.8026609420776367,0.7979773879051208,89.27072143554688,-0.1058063730597496,0.0
780,0.0005292892456054688,1.0042698383331299,-0.008565902709960938,-0.19249820709228516,-0.004076957702636719,0.3924674987792969,89.5103759765625,-0.03019600175321102,0.0,0.36499640345573425,-0.8026813268661499,0.799939751625061,89.27182006835938,-0.10517826676368713,0.0
785,0.00028514862060546875,1.0071995258331299,-0.017599105834960938,-0.1466965675354004,0.20966386795043945,0.23979568481445312,88.99882507324219,-0.016218552365899086,0.0,0.3642629086971283,-0.8016330003738403,0.8011387586593628,89.26876068115234,-0.10337872058153152,0.0
790,0.0032148361206054688,1.0071995258331299,-0.013204574584960938,-0.08562803268432617,0.24019813537597656,0.6825437545776367,89.22694396972656,-0.18286356329917908,0.0,0.36383476853370667,-0.800432026386261,0.8045514822006226,89.26798248291016,-0.10286489874124527,0.0
795,0.004435539245605469,1.0032932758331299,-0.010763168334960938,-0.16196393966674805,-0.12621402740478516,0.3772001266479492,89.33522033691406,-0.25328725576400757,0.0,0.3630249500274658,-0.8010631203651428,0.8064374923706055,89.26775360107422,-0.10476744920015335,0.0
800,-0.0006914138793945312,1.0028049945831299,-0.014181137084960938,-0.16196393966674805,-0.40102338790893555,0.6672768592834473,89.1888427734375,0.03950033336877823,0.0,0.362215131521225,-0.803068220615387,0.809773862361908,89.26628112792969,-0.10553500801324844,0.0
805,0.0022382736206054688,1.0089085102081299,-0.010030746459960938,-0.039826393127441406,0.28599977493286133,0.6062078475952148,89.41636657714844,-0.1271047741174698,0.0,0.3620159924030304,-0.8016382455825806,0.8128048777580261,89.26734924316406,-0.10429897159337997,0.0
810,0.0032148361206054688,1.0081760883331299,-0.0066127777099609375,-0.039826393127441406,-0.37048912048339844,0.423001766204834,89.58213806152344,-0.18269820511341095,0.0,0.3618168532848358,-0.8034906983375549,0.8149198889732361,89.2697982788086,-0.10679490864276886,0.0
815,0.0027265548706054688,1.0079319477081299,-0.014425277709960938,-0.11616230010986328,-0.09567975997924805,0.1481928825378418,89.16553497314453,-0.15497446060180664,0.0,0.361236035823822,-0.8039690852165222,0.815660834312439,89.26834869384766,-0.1076730489730835,0.0
820,0.0022382736206054688,1.0062229633331299,-0.014669418334960938,-0.08562803268432617,0.026457786560058594,0.3466658592224121,89.15509796142578,-0.12743675708770752,0.0,0.3608078956604004,-0.8038368225097656,0.8173941373825073,89.26697540283203,-0.10770697146654129,0.0
825,0.004923820495605469,1.0096409320831299,-0.010519027709960938,-0.13142967224121094,0.07225894927978516,-0.17241811752319336,89.34092712402344,-0.27940288186073303,0.0,0.3601507544517517,-0.8034754991531372,0.8165320754051208,89.26693725585938,-0.1087786853313446,0.0
830,-0.0026445388793945312,1.0047581195831299,-0.012716293334960938,-0.08562803268432617,-0.32468748092651367,0.27032995223999023,89.25938415527344,0.15079094469547272,0.0,0.3597226142883301,-0.8050989508628845,0.8178837299346924,89.26644897460938,-0.10823328047990799,0.0
836,0.0007734298706054688,1.0062229633331299,-0.015890121459960938,-0.16196393966674805,-0.12621402740478516,0.33139896392822266,89.09420013427734,-0.04403470829129219,0.0,0.35891279578208923,-0.8057300448417664,0.8195407390594482,89.26422119140625,-0.10832763463258743,0.0
841,0.0024824142456054688,1.0025608539581299,-0.009786605834960938,0.3265857696533203,-0.04987812042236328,0.36193323135375977,89.42301177978516,-0.14186151325702667,0.0,0.3608722984790802,-0.8060293197631836,0.82171231508255,89.2674789428711,-0.10890188068151474,0.0
846,0.0017499923706054688,1.0086643695831299,-0.020040512084960938,0.05177640914916992,0.3623356819152832,0.30086469650268555,88.8574447631836,-0.09938617050647736,0.0,0.3611311912536621,-0.8042176365852356,0.8232166171073914,89.26435089111328,-0.10702665150165558,0.0
851,0.0024824142456054688,1.0064671039581299,-0.010763168334960938,-0.13142967224121094,0.10279369354248047,0.49933767318725586,89.3712158203125,-0.14130957424640656,0.0,0.3604740500450134,-0.8037036657333374,0.8257132768630981,89.26457977294922,-0.10679891705513,0.0
856,-0.0019121170043945312,1.0067112445831299,-0.013448715209960938,-0.009292125701904297,-0.004076957702636719,-0.03501319885253906,89.2269287109375,0.10881603509187698,0.0,0.360427588224411,-0.8037240505218506,0.8255382180213928,89.26422882080078,-0.10505054891109467,0.0
861,-0.0006914138793945312,1.0062229633331299,-0.014181137084960938,-0.1466965675354004,-0.2788858413696289,0.19399404525756836,89.19159698486328,0.03936618193984032,0.0,0.35969409346580505,-0.8051185011863708,0.8265081644058228,89.26290893554688,-0.10525231063365936,0.0
866,0.00028514862060546875,1.0020725727081299,-0.010519027709960938,-0.1772313117980957,-0.18728303909301758,0.3924674987792969,89.39835357666016,-0.01630312204360962,0.0,0.3588079512119293,-0.8060548901557922,0.8284705281257629,89.26313781738281,-0.10545554012060165,0.0
871,-0.0014238357543945312,1.0108616352081299,-0.011007308959960938,0.05177640914916992,-0.43155765533447266,0.3466658592224121,89.37093353271484,0.08069837093353271,0.0,0.35906684398651123,-0.8082126975059509,0.8302038311958313,89.26427459716797,-0.10608148574829102,0.0
876,-0.00020313262939453125,1.0045139789581299,-0.009542465209960938,-0.039826393127441406,-0.019343852996826172,0.27032995223999023,89.45560455322266,0.011585818603634834,0.0,0.35886770486831665,-0.8083094358444214,0.8315554857254028,89.26563262939453,-0.10522281378507614,0.0
881,-0.0026445388793945312,1.0067112445831299,-0.019552230834960938,-0.1772313117980957,-0.15674829483032227,0.46880340576171875,88.8772201538086,0.15048207342624664,0.0,0.3579815626144409,-0.809093177318573,0.8338994979858398,89.26161193847656,-0.10393127053976059,0.0
886,0.0010175704956054688,1.0059788227081299,-0.008077621459960938,-0.024559497833251953,-0.019343852996826172,0.30086469650268555,89.53630828857422,-0.0579540990293026,0.0,0.3578587770462036,-0.8091899156570435,0.8354038000106812,89.26371002197266,-0.10365617275238037,0.0
891,0.0032148361206054688,1.0106174945831299,-0.009542465209960938,-0.32990312576293945,-0.1414813995361328,0.5146050453186035,89.42914581298828,-0.1822526454925537,0.0,0.35620924830436707,-0.8098973035812378,0.8379768133163452,89.2634048461914,-0.10499051958322525,0.0
896,-0.0009355545043945312,1.0040256977081299,-0.010030746459960938,-0.08562803268432617,-0.004076957702636719,0.3772001266479492,89.42511749267578,0.053385719656944275,0.0,0.35578110814094543,-0.809917688369751,0.8398628234863281,89.2642822265625,-0.10373920947313309,0.0
901,0.0007734298706054688,1.0089085102081299,-0.009054183959960938,-0.07036113739013672,-0.2788858413696289,0.4840707778930664,89.48395538330078,-0.043921202421188354,0.0,0.3554292917251587,-0.8113121390342712,0.8422831892967224,89.26569366455078,-0.10464342683553696,0.0
906,0.0012617111206054688,1.0064671039581299,-0.015401840209960938,0.06704378128051758,-0.004076957702636719,0.3924674987792969,89.1203384399414,-0.07181777060031891,0.0,0.3557645082473755,-0.8113325238227844,0.8442455530166626,89.26486206054688,-0.10440142452716827,0.0
911,0.0010175704956054688,1.0079319477081299,-0.010274887084960938,0.28078413009643555,0.10279369354248047,0.5909409523010254,89.4130859375,-0.057840656489133835,0.0,0.35716843605041504,-0.8108185529708862,0.8472002744674683,89.2674331665039,-0.10352051258087158,0.0
916,-0.00020313262939453125,1.0069553852081299,-0.012716293334960938,-0.039826393127441406,0.026457786560058594,0.3466658592224121,89.2763900756836,0.011557328514754772,0.0,0.35696929693222046,-0.8106862902641296,0.8489335775375366,89.2673110961914,-0.10247444361448288,0.0
921,0.0007734298706054688,1.0074436664581299,-0.0051479339599609375,-0.13142967224121094,-0.23308420181274414,0.20926141738891602,89.70394134521484,-0.04398626089096069,0.0,0.3563121557235718,-0.8118517398834229,0.8499798774719238,89.27012634277344,-0.10316677391529083,0.0
926,0.005167961120605469,1.0062229633331299,-0.0056362152099609375,-0.024559497833251953,-0.06514549255371094,0.529871940612793,89.56458282470703,-0.29426392912864685,0.0,0.3561893701553345,-0.8121774792671204,0.8526292443275452,89.27233123779297,-0.10500188171863556,0.0
931,0.003947257995605469,1.0074436664581299,-0.019308090209960938,0.05177640914916992,0.24019813537597656,0.46880340576171875,88.87933349609375,-0.2244478315114975,0.0,0.3564482629299164,-0.810976505279541,0.8549732565879822,89.26948547363281,-0.10475323349237442,0.0
936,0.003947257995605469,1.0045139789581299,-0.0061244964599609375,-0.11616230010986328,-0.12621402740478516,0.5451393127441406,89.58441162109375,-0.2251395881175995,0.0,0.3558674454689026,-0.8116075992584229,0.8576989769935608,89.27139282226562,-0.10632744431495667,0.0
941,0.003947257995605469,1.0103733539581299,-0.017354965209960938,-0.039826393127441406,-0.3857560157775879,0.23979568481445312,88.99081420898438,-0.22380511462688446,0.0,0.355668306350708,-0.8135364055633545,0.8588979840278625,89.26898956298828,-0.10916417837142944,0.0
946,0.0032148361206054688,1.0089085102081299,-0.012472152709960938,0.18918085098266602,-0.37048912048339844,0.27032995223999023,89.26859283447266,-0.18255554139614105,0.0,0.35661420226097107,-0.8153888583183289,0.8602496385574341,89.26992797851562,-0.11157751083374023,0.0
951,0.0037031173706054688,1.0057346820831299,-0.012960433959960938,-0.19249820709228516,0.1943964958190918,0.529871940612793,89.2321548461914,-0.21094472706317902,0.0,0.35565170645713806,-0.8144168853759766,0.8628990054130554,89.2686767578125,-0.11139048635959625,0.0
956,0.0034589767456054688,1.0101292133331299,-0.012472152709960938,0.021242141723632812,-0.04987812042236328,0.7741470336914062,89.26589965820312,-0.19618172943592072,0.0,0.3557579219341278,-0.8146662712097168,0.8667697310447693,89.26876068115234,-0.11229982227087021,0.0
961,0.0027265548706054688,1.0018284320831299,-0.0066127777099609375,0.06704378128051758,0.08752632141113281,0.22452878952026367,89.59092712402344,-0.15593118965625763,0.0,0.3560931384563446,-0.8142286539077759,0.8678923845291138,89.2716064453125,-0.11220546066761017,0.0
966,0.0019941329956054688,1.0071995258331299,-0.010763168334960938,0.1281123161315918,-0.04987812042236328,0.423001766204834,89.37732696533203,-0.11343207210302353,0.0,0.3567337095737457,-0.8144780397415161,0.8700073957443237,89.27306365966797,-0.11246244609355927,0.0
971,-0.00044727325439453125,1.0111057758331299,-0.008565902709960938,0.09757804870605469,0.04172468185424805,0.1787271499633789,89.51395416259766,0.025344477966427803,0.0,0.3572216033935547,-0.8142694234848022,0.8709010481834412,89.2754135131836,-0.11118651181459427,0.0
976,0.0032148361206054688,1.0096409320831299,-0.011983871459960938,-0.1466965675354004,-0.019343852996826172,0.46880340576171875,89.2959213256836,-0.18242420256137848,0.0,0.35648810863494873,-0.8143661618232727,0.8732450604438782,89.27484893798828,-0.11183391511440277,0.0
981,0.0010175704956054688,1.0059788227081299,-0.014181137084960938,-0.16196393966674805,-0.15674829483032227,0.5604066848754883,89.1902847290039,-0.057950209826231,0.0,0.3556782901287079,-0.8151499032974243,0.8760470747947693,89.27339172363281,-0.11219534277915955,0.0
987,0.0029706954956054688,1.0069553852081299,-0.010763168334960938,-0.07036113739013672,-0.04987812042236328,0.19399404525756836,89.36470031738281,-0.16902248561382294,0.0,0.3552561104297638,-0.8154491782188416,0.8772110342979431,89.273681640625,-0.1129315048456192,0.0
992,0.0022382736206054688,1.0074436664581299,-0.010519027709960938,0.06704378128051758,-0.2178173065185547,0.4840707778930664,89.38838958740234,-0.12728893756866455,0.0,0.3555913269519806,-0.8165382742881775,0.8796314001083374,89.27490234375,-0.11412293463945389,0.0
997,-0.0006914138793945312,1.0040256977081299,-0.009054183959960938,-0.39097166061401367,-0.12621402740478516,0.3772001266479492,89.48182678222656,0.03945464640855789,0.0,0.3536364734172821,-0.8171693682670593,0.8815174102783203,89.2745590209961,-0.11356689780950546,0.0
1002,0.0022382736206054688,1.0084202289581299,-0.015157699584960938,0.005974769592285156,-0.004076957702636719,0.4535360336303711,89.12950897216797,-0.1271582394838333,0.0,0.3536663353443146,-0.8171897530555725,0.8837850689888,89.27347564697266,-0.113691546022892,0.0
1007,0.006388664245605469,1.0059788227081299,-0.010519027709960938,-0.13142967224121094,-0.08041238784790039,0.3924674987792969,89.29907989501953,-0.3638432025909424,0.0,0.3530091941356659,-0.8175917863845825,0.8857474327087402,89.27301788330078,-0.11600875109434128,0.0
1012,0.0010175704956054688,1.0015842914581299,-0.011983871459960938,-0.2535672187805176,0.0569920539855957,0.5451393127441406,89.31202697753906,-0.05820608511567116,0.0,0.35174134373664856,-0.8173068165779114,0.8884731531143188,89.27205657958984,-0.11528357118368149,0.0
1017,0.0012617111206054688,1.0096409320831299,-0.012716293334960938,-0.39097166061401367,-0.12621402740478516,0.22452878952026367,89.27486419677734,-0.0715947151184082,0.0,0.3497864902019501,-0.8179379105567932,0.8895958065986633,89.2701416015625,-0.11557607352733612,0.0
1022,4.100799560546875e-05,1.0059788227081299,-0.007833480834960938,-0.29936838150024414,0.14859485626220703,0.40773487091064453,89.55384826660156,-0.002335550030693412,0.0,0.3482896387577057,-0.817194938659668,0.891634464263916,89.27082061767578,-0.11397529393434525,0.0
1027,0.0017499923706054688,1.0059788227081299,-0.013204574584960938,-0.08562803268432617,-0.15674829483032227,0.22452878952026367,89.24140167236328,-0.09966257214546204,0.0,0.34786149859428406,-0.8179786801338196,0.8927571177482605,89.27017211914062,-0.1146441325545311,0.0
1032,0.0022382736206054688,1.0062229633331299,-0.011251449584960938,-0.039826393127441406,-0.2788858413696289,0.27032995223999023,89.3468017578125,-0.12744233012199402,0.0,0.3476623594760895,-0.8193731307983398,0.894108772277832,89.27056121826172,-0.1161252036690712,0.0
1037,0.0027265548706054688,1.0069553852081299,-0.011983871459960938,-0.43677330017089844,0.17912960052490234,0.6062078475952148,89.30072784423828,-0.15512965619564056,0.0,0.34547850489616394,-0.8184775114059448,0.8971397876739502,89.26862335205078,-0.11553215235471725,0.0
1042,0.004435539245605469,1.0047581195831299,-0.016134262084960938,-0.11616230010986328,-0.32468748092651367,0.27032995223999023,89.04590606689453,-0.2528999447822571,0.0,0.34489768743515015,-0.8201009631156921,0.8984914422035217,89.26636505126953,-0.11818326264619827,0.0
1047,0.003947257995605469,1.0059788227081299,-0.011983871459960938,-0.009292125701904297,-0.26361894607543945,0.36193323135375977,89.28141784667969,-0.2247999757528305,0.0,0.34485122561454773,-0.8214190602302551,0.9003010988235474,89.26643371582031,-0.12029716372489929,0.0
1052,0.005412101745605469,1.0069553852081299,-0.007833480834960938,-0.2841014862060547,0.10279369354248047,0.056589603424072266,89.45825958251953,-0.3079364001750946,0.0,0.3434307277202606,-0.8209050893783569,0.9005840420722961,89.26647186279297,-0.1212027445435524,0.0
1057,0.0015058517456054688,1.0062229633331299,-0.017110824584960938,0.11284542083740234,0.08752632141113281,0.3772001266479492,89.02201080322266,-0.08573289960622787,0.0,0.34399494528770447,-0.820467472076416,0.902470052242279,89.26519012451172,-0.12050125002861023,0.0
1062,0.0027265548706054688,1.0045139789581299,-0.007833480834960938,-0.39097166061401367,-0.23308420181274414,0.22452878952026367,89.52690887451172,-0.1555129736661911,0.0,0.342040091753006,-0.8216329216957092,0.9035927057266235,89.26522064208984,-0.12192117422819138,0.0
1067,0.003947257995605469,1.0091526508331299,-0.016378402709960938,0.08231067657470703,-0.46209192276000977,0.6062078475952148,89.04356384277344,-0.22407937049865723,0.0,0.34245163202285767,-0.8239433765411377,0.9066237211227417,89.26396179199219,-0.12498120218515396,0.0
1072,-0.0006914138793945312,1.0067112445831299,-0.010519027709960938,0.20444822311401367,-0.03461122512817383,0.33139896392822266,89.40005493164062,0.039348848164081573,0.0,0.343473881483078,-0.8241164088249207,0.9082807302474976,89.26599884033203,-0.12392131984233856,0.0
1077,4.100799560546875e-05,1.0064671039581299,-0.008077621459960938,-0.05509376525878906,0.11806058883666992,0.19399404525756836,89.5401611328125,-0.002334412420168519,0.0,0.34319841861724854,-0.8235260844230652,0.9092506766319275,89.26777648925781,-0.1224256083369255,0.0
1082,-0.0006914138793945312,1.0067112445831299,-0.012228012084960938,0.06704378128051758,-0.309420108795166,0.33139896392822266,89.302978515625,0.039348095655441284,0.0,0.34353363513946533,-0.8250731825828552,0.9109076857566833,89.26837158203125,-0.12275251001119614,0.0
1087,0.005167961120605469,1.0052464008331299,-0.014913558959960938,-0.024559497833251953,0.13332796096801758,0.23979568481445312,89.10045623779297,-0.2945219874382019,0.0,0.343410849571228,-0.8244065642356873,0.9121066927909851,89.26699829101562,-0.1233721598982811,0.0
1092,-0.0009355545043945312,1.0067112445831299,-0.011007308959960938,0.005974769592285156,0.10279369354248047,0.423001766204834,89.37129974365234,0.05324278026819229,0.0,0.3434407114982605,-0.8238925933837891,0.9142217040061951,89.26780700683594,-0.12154657393693924,0.0
1097,-0.0009355545043945312,1.0030491352081299,-0.013692855834960938,-0.16196393966674805,0.011190414428710938,-0.17241811752319336,89.216064453125,0.05343538522720337,0.0,0.34263089299201965,-0.823836624622345,0.9133596420288086,89.26661682128906,-0.12018972635269165,0.0
1102,0.0005292892456054688,1.0067112445831299,-0.015890121459960938,-0.1772313117980957,0.1638622283935547,0.5604066848754883,89.09520721435547,-0.030120115727186203,0.0,0.3417447507381439,-0.8230172991752625,0.9161616563796997,89.26446533203125,-0.11870767176151276,0.0
1107,0.0012617111206054688,1.0091526508331299,-0.018819808959960938,-0.10089540481567383,0.08752632141113281,0.2855973243713379,88.92920684814453,-0.0716225802898407,0.0,0.3412402868270874,-0.8225796818733215,0.9175896644592285,89.26148223876953,-0.11792416125535965,0.0
1112,0.0007734298706054688,1.0057346820831299,-0.0061244964599609375,0.09757804870605469,-0.2483515739440918,0.11765861511230469,89.64832305908203,-0.04406076297163963,0.0,0.34172818064689636,-0.8238214254379272,0.9181779623031616,89.26483154296875,-0.11860984563827515,0.0
1117,0.00028514862060546875,1.0052464008331299,-0.023702621459960938,-0.05509376525878906,-0.08041238784790039,0.22452878952026367,88.64917755126953,-0.016248028725385666,0.0,0.3414527177810669,-0.8242234587669373,0.9193006157875061,89.260009765625,-0.11825213581323624,0.0
1122,0.004435539245605469,1.0069553852081299,-0.0075893402099609375,-0.11616230010986328,-0.15674829483032227,0.5604066848754883,89.49983215332031,-0.25237345695495605,0.0,0.3408719003200531,-0.8250072002410889,0.9221026301383972,89.2612075805664,-0.120020292699337,0.0
1127,0.0010175704956054688,1.0054905414581299,-0.014181137084960938,0.06704378128051758,-0.09567975997924805,0.423001766204834,89.18989562988281,-0.05797834321856499,0.0,0.3412071168422699,-0.8254855871200562,0.9242176413536072,89.26101684570312,-0.1200377568602562,0.0
1133,0.00028514862060546875,1.0069553852081299,-0.010519027709960938,-0.23829984664916992,-0.3552217483520508,0.49933767318725586,89.4012680053711,-0.016224075108766556,0.0,0.34001561999320984,-0.8272616863250732,0.926714301109314,89.2608642578125,-0.12103646993637085,0.0
1138,-0.00020313262939453125,1.0037815570831299,-0.0053920745849609375,0.09757804870605469,-0.03461122512817383,0.08712387084960938,89.69200897216797,0.011594628915190697,0.0,0.3406010866165161,-0.8274693489074707,0.9272370338439941,89.2646255493164,-0.12026489526033401,0.0
1143,0.0024824142456054688,1.0050022602081299,-0.013936996459960938,-0.36043739318847656,0.0569920539855957,0.5604066848754883,89.1929931640625,-0.1415100246667862,0.0,0.3387989103794098,-0.8271843791007996,0.9300390481948853,89.26231384277344,-0.12013842910528183,0.0
1148,4.100799560546875e-05,1.0118381977081299,-0.007833480834960938,-0.2535672187805176,0.011190414428710938,0.07185697555541992,89.55642700195312,-0.002322026062756777,0.0,0.33753105998039246,-0.8271284103393555,0.9303983449935913,89.26322174072266,-0.11921675503253937,0.0
1153,4.100799560546875e-05,1.0089085102081299,-0.013936996459960938,-0.009292125701904297,-0.18728303909301758,0.36193323135375977,89.20856475830078,-0.0023286163341253996,0.0,0.33748459815979004,-0.8280647993087769,0.9322080016136169,89.26277160644531,-0.11928814649581909,0.0
1158,0.0015058517456054688,1.0052464008331299,-0.009054183959960938,-0.11616230010986328,0.28599977493286133,0.5604066848754883,89.47686767578125,-0.085825115442276,0.0,0.33690378069877625,-0.8266348242759705,0.9350100159645081,89.26376342773438,-0.11762328445911407,0.0
1163,4.100799560546875e-05,1.0076878070831299,-0.016866683959960938,-0.3451700210571289,-0.26361894607543945,0.08712387084960938,89.04106903076172,-0.0023313332349061966,0.0,0.3351779282093048,-0.8279529213905334,0.9354456067085266,89.26042175292969,-0.1180875152349472,0.0
1168,-0.0028886795043945312,1.0062229633331299,-0.013448715209960938,0.14337968826293945,-0.1109471321105957,0.22452878952026367,89.216796875,0.16447041928768158,0.0,0.3358948230743408,-0.828507661819458,0.9365682601928711,89.26081085205078,-0.11657185852527618,0.0
1173,-0.0006914138793945312,1.0103733539581299,-0.0056362152099609375,-0.05509376525878906,-0.03461122512817383,0.4840707778930664,89.67799377441406,0.039207760244607925,0.0,0.33561936020851135,-0.828680694103241,0.9389886260032654,89.26358795166016,-0.11560589075088501,0.0
1178,0.0017499923706054688,1.0035374164581299,-0.012960433959960938,0.06704378128051758,-0.2483515739440918,0.423001766204834,89.25336456298828,-0.09990530461072922,0.0,0.33595457673072815,-0.8299224376678467,0.9411036372184753,89.26384735107422,-0.11672406643629074,0.0
1183,0.0017499923706054688,1.0067112445831299,-0.010274887084960938,0.08231067657470703,-0.1414813995361328,0.16345977783203125,89.40681457519531,-0.09959346055984497,0.0,0.33636611700057983,-0.830629825592041,0.9419209361076355,89.26529693603516,-0.11730151623487473,0.0
1188,4.100799560546875e-05,1.0108616352081299,-0.012472152709960938,-0.11616230010986328,0.10279369354248047,0.40773487091064453,89.29310607910156,-0.0023241620510816574,0.0,0.33578529953956604,-0.8301158547401428,0.9439595937728882,89.26492309570312,-0.11595464497804642,0.0
1193,-0.0024003982543945312,1.0079319477081299,-0.013204574584960938,-0.16196393966674805,-0.1414813995361328,0.11765861511230469,89.23712921142578,0.13643839955329895,0.0,0.3349754810333252,-0.8308232426643372,0.9445478916168213,89.263916015625,-0.11482256650924683,0.0
1198,0.0007734298706054688,1.0003635883331299,-0.015157699584960938,0.03650951385498047,-0.06514549255371094,0.5146050453186035,89.13078308105469,-0.04429306834936142,0.0,0.33515802025794983,-0.8311489820480347,0.9471209049224854,89.26313018798828,-0.1146339401602745,0.0
1203,0.0027265548706054688,1.0074436664581299,-0.016622543334960938,0.005974769592285156,0.04172468185424805,0.36193323135375977,89.0420913696289,-0.1550443470478058,0.0,0.3351878821849823,-0.8309403657913208,0.948930561542511,89.26155853271484,-0.11471983045339584,0.0
1208,0.004679679870605469,1.0035374164581299,-0.014181137084960938,0.06704378128051758,0.3012666702270508,0.49933767318725586,89.1474609375,-0.26715216040611267,0.0,0.3355230987071991,-0.8294340372085571,0.9514272212982178,89.26106262207031,-0.11432836204767227,0.0
1213,-0.0014238357543945312,1.0050022602081299,-0.018575668334960938,-0.1772313117980957,-0.20254993438720703,0.7130780220031738,88.93800354003906,0.081159807741642,0.0,0.33463695645332336,-0.8304467797279358,0.9549925923347473,89.25785064697266,-0.11391962319612503,0.0
1218,0.0017499923706054688,1.0098850727081299,-0.016134262084960938,0.03650951385498047,-0.26361894607543945,0.5756735801696777,89.07933044433594,-0.0992729589343071,0.0,0.334819495677948,-0.8317648768424988,0.9578709602355957,89.25674438476562,-0.11512236297130585,0.0
1223,0.0017499923706054688,1.0032932758331299,-0.019308090209960938,-0.05509376525878906,-0.004076957702636719,0.46880340576171875,88.89297485351562,-0.09991945326328278,0.0,0.33454403281211853,-0.831785261631012,0.9602149724960327,89.25384521484375,-0.1150328665971756,0.0
1228,0.0029706954956054688,1.0069553852081299,-0.017110824584960938,0.17391395568847656,-0.1414813995361328,0.529871940612793,89.01192474365234,-0.16900773346424103,0.0,0.3354136049747467,-0.8324926495552063,0.962864339351654,89.25296783447266,-0.11612433195114136,0.0
1233,0.0005292892456054688,1.0089085102081299,-0.010763168334960938,-0.08562803268432617,0.34706830978393555,0.19399404525756836,89.38804626464844,-0.030056552961468697,0.0,0.3349854648113251,-0.8307573199272156,0.963834285736084,89.2535171508789,-0.11378161609172821,0.0
1238,0.005656242370605469,1.0057346820831299,-0.016622543334960938,-0.11616230010986328,0.31653404235839844,0.316131591796875,88.99980926513672,-0.3221835196018219,0.0,0.3344046473503113,-0.8291746377944946,0.9654149413108826,89.25111389160156,-0.11370966583490372,0.0
1243,0.0015058517456054688,1.0054905414581299,-0.013936996459960938,-0.2077655792236328,-0.1414813995361328,0.10239124298095703,89.20125579833984,-0.08579951524734497,0.0,0.3333658277988434,-0.829882025718689,0.9659268856048584,89.24972534179688,-0.11421140283346176,0.0
1248,0.0012617111206054688,1.0054905414581299,-0.0049037933349609375,-0.26883411407470703,-0.019343852996826172,0.27032995223999023,89.71147155761719,-0.07189508527517319,0.0,0.33202165365219116,-0.8299787640571594,0.9672785401344299,89.251708984375,-0.11400362104177475,0.0
1253,0.0024824142456054688,1.0120823383331299,-0.014181137084960938,0.17391395568847656,-0.04987812042236328,0.3924674987792969,89.18502807617188,-0.14051981270313263,0.0,0.33289122581481934,-0.8302281498908997,0.9692409038543701,89.25209045410156,-0.1144414022564888,0.0
1258,0.005412101745605469,1.0045139789581299,-0.0075893402099609375,-0.08562803268432617,-0.1109471321105957,0.1787271499633789,89.46833801269531,-0.3086853325366974,0.0,0.3324630856513977,-0.8307828903198242,0.9701345562934875,89.25321197509766,-0.1163838729262352,0.0
1263,0.0024824142456054688,1.0054905414581299,-0.008077621459960938,-0.43677330017089844,-0.1109471321105957,0.07185697555541992,89.51847839355469,-0.14145034551620483,0.0,0.33027923107147217,-0.8313376307487488,0.9704938530921936,89.25294494628906,-0.11711405217647552,0.0
1268,0.004191398620605469,1.0093967914581299,-0.009786605834960938,0.1281123161315918,0.011190414428710938,0.30086469650268555,89.39570617675781,-0.23790127038955688,0.0,0.3309198021888733,-0.8312816619873047,0.9719981551170349,89.25460052490234,-0.11792219430208206,0.0
1273,-0.00044727325439453125,1.0020725727081299,-0.013204574584960938,-0.1772313117980957,-0.3399543762207031,0.2550630569458008,89.2446060180664,0.02557164430618286,0.0,0.33003365993499756,-0.8329814076423645,0.9732734560966492,89.25364685058594,-0.1185847669839859,0.0
1279,0.0017499923706054688,1.0042698383331299,-0.011739730834960938,-0.26883411407470703,-0.019343852996826172,-0.11134910583496094,89.3228530883789,-0.09983395040035248,0.0,0.32868948578834534,-0.833078145980835,0.9727166891098022,89.2528076171875,-0.1185469701886177,0.0
1284,-0.00044727325439453125,1.0081760883331299,-0.010030746459960938,-0.039826393127441406,0.17912960052490234,0.49933767318725586,89.42939758300781,0.025417782366275787,0.0,0.3284505307674408,-0.8320033550262451,0.9757127165794373,89.25383758544922,-0.11645063757896423,0.0
1289,0.0027265548706054688,1.0057346820831299,-0.011251449584960938,0.25024986267089844,0.04172468185424805,0.2855973243713379,89.34049224853516,-0.1553192287683487,0.0,0.3297017812728882,-0.8317947387695312,0.9771407246589661,89.25569915771484,-0.11652111262083054,0.0
1294,0.00028514862060546875,1.0064671039581299,-0.011739730834960938,-0.07036113739013672,0.10279369354248047,0.46880340576171875,89.3315200805664,-0.016231728717684746,0.0,0.32934996485710144,-0.8312807679176331,0.9794847369194031,89.25588989257812,-0.11529519408941269,0.0
1299,-0.00044727325439453125,1.0079319477081299,-0.011739730834960938,0.28078413009643555,-0.5384278297424316,0.8657498359680176,89.33219909667969,0.025423472747206688,0.0,0.330753892660141,-0.8339729309082031,0.983813464641571,89.25782775878906,-0.11696499586105347,0.0
1304,0.00028514862060546875,1.0074436664581299,-0.013448715209960938,-0.36043739318847656,0.026457786560058594,0.23979568481445312,89.23501586914062,-0.016215652227401733,0.0,0.32895171642303467,-0.8338406682014465,0.9850124716758728,89.25587463378906,-0.11611609905958176,0.0
1309,-0.0009355545043945312,1.0089085102081299,-0.011251449584960938,-0.05509376525878906,0.0569920539855957,0.3772001266479492,89.35885620117188,0.05312669649720192,0.0,0.3286762535572052,-0.8335556983947754,0.9868984818458557,89.25633239746094,-0.11462891101837158,0.0
1314,-0.004841804504394531,1.0098850727081299,-0.009054183959960938,-0.039826393127441406,-0.1109471321105957,-0.05028057098388672,89.41749572753906,0.27468639612197876,0.0,0.3284771144390106,-0.8341104388237,0.9866470694541931,89.25727844238281,-0.11241202056407928,0.0
1319,0.0034589767456054688,1.0062229633331299,-0.010274887084960938,-0.3146357536315918,-0.20254993438720703,0.3466658592224121,89.3826904296875,-0.19694805145263672,0.0,0.32690393924713135,-0.8351231813430786,0.9883803725242615,89.25660705566406,-0.114018015563488,0.0
1324,-0.0016679763793945312,1.0059788227081299,-0.012960433959960938,-0.009292125701904297,-0.29415321350097656,0.636742115020752,89.25579071044922,0.09499204903841019,0.0,0.32685747742652893,-0.8365939259529114,0.9915640950202942,89.25655364990234,-0.11399511247873306,0.0
1329,0.0037031173706054688,1.0028049945831299,-0.011251449584960938,-0.375704288482666,0.04172468185424805,0.36193323135375977,89.32324981689453,-0.21156524121761322,0.0,0.32497894763946533,-0.8363853096961975,0.9933737516403198,89.25516510009766,-0.11447976529598236,0.0
1334,0.0034589767456054688,1.0064671039581299,-0.0066127777099609375,0.21971559524536133,-0.019343852996826172,0.4840707778930664,89.57516479492188,-0.19690629839897156,0.0,0.32607752084732056,-0.836482048034668,0.9957941174507141,89.2585220336914,-0.11515972018241882,0.0
1339,0.0012617111206054688,1.0054905414581299,-0.008321762084960938,-0.08562803268432617,-0.18728303909301758,0.10239124298095703,89.52039337158203,-0.07189347594976425,0.0,0.3256493806838989,-0.8374184370040894,0.9963060617446899,89.25994873046875,-0.11578326672315598,0.0
1344,0.003947257995605469,1.0050022602081299,-0.022237777709960938,-0.43677330017089844,-0.29415321350097656,0.33139896392822266,88.71260833740234,-0.22497931122779846,0.0,0.3234655261039734,-0.8388891816139221,0.9979630708694458,89.25391387939453,-0.11801589280366898,0.0
1349,0.0010175704956054688,1.0137913227081299,-0.0071010589599609375,-0.11616230010986328,-0.18728303909301758,0.3466658592224121,89.5945816040039,-0.05750793591141701,0.0,0.3228847086429596,-0.8398255705833435,0.9996963739395142,89.25574493408203,-0.11851812154054642,0.0
1354,0.0034589767456054688,1.0079319477081299,-0.0061244964599609375,0.005974769592285156,0.2249307632446289,0.1481928825378418,89.60017395019531,-0.19662074744701385,0.0,0.32291457056999207,-0.8387008905410767,1.0004373788833618,89.25820922851562,-0.117952860891819,0.0
1359,0.0015058517456054688,1.0062229633331299,-0.0051479339599609375,-0.10089540481567383,0.3012666702270508,0.4840707778930664,89.69458770751953,-0.08574417233467102,0.0,0.32241010665893555,-0.837194561958313,1.0028576850891113,89.26078796386719,-0.11622992157936096,0.0
1364,0.005412101745605469,1.0081760883331299,-0.011495590209960938,-0.13142967224121094,-0.1414813995361328,0.026055335998535156,89.27794647216797,-0.30755287408828735,0.0,0.32175296545028687,-0.8379019498825073,1.0029879808425903,89.26025390625,-0.1182810440659523,0.0
1369,0.0010175704956054688,1.0071995258331299,-0.018575668334960938,-0.10089540481567383,0.07225894927978516,0.30086469650268555,88.94183349609375,-0.05787588283419609,0.0,0.32124850153923035,-0.8375406265258789,1.0044922828674316,89.25750732421875,-0.11749681085348129,0.0
1374,-0.0014238357543945312,1.0025608539581299,-0.016866683959960938,-0.16196393966674805,-0.2483515739440918,0.13292551040649414,89.03274536132812,0.08135983347892761,0.0,0.3204386830329895,-0.8387823700904846,1.0051568746566772,89.25511932373047,-0.11733020097017288,0.0
1379,0.0015058517456054688,1.0064671039581299,-0.010519027709960938,-0.039826393127441406,0.13332796096801758,0.3772001266479492,89.39509582519531,-0.08571981638669968,0.0,0.3202395439147949,-0.8381157517433167,1.0070428848266602,89.25590515136719,-0.11644593626260757,0.0
1384,0.00028514862060546875,1.0054905414581299,-0.011007308959960938,-0.024559497833251953,0.04172468185424805,0.026055335998535156,89.37258911132812,-0.016247624531388283,0.0,0.3201167583465576,-0.8379071354866028,1.0071731805801392,89.25660705566406,-0.11553461849689484,0.0
1389,0.00028514862060546875,1.0086643695831299,-0.011983871459960938,0.18918085098266602,-0.37048912048339844,0.23979568481445312,89.3191146850586,-0.016196327283978462,0.0,0.3210626542568207,-0.8397595882415771,1.008372187614441,89.25798797607422,-0.1166764572262764,0.0
1394,0.0010175704956054688,1.0054905414581299,-0.0017299652099609375,-0.23829984664916992,0.1638622283935547,0.30086469650268555,89.88563537597656,-0.05798402428627014,0.0,0.3198711574077606,-0.8389402627944946,1.0098764896392822,89.2612075805664,-0.11545103043317795,0.0
1399,4.100799560546875e-05,1.0093967914581299,-0.013448715209960938,0.14337968826293945,-0.2788858413696289,0.10239124298095703,89.23666381835938,-0.002327505499124527,0.0,0.32058805227279663,-0.8403347134590149,1.0103884935379028,89.26174926757812,-0.11604242771863937,0.0
1404,-0.0014238357543945312,1.0076878070831299,-0.013692855834960938,-0.19249820709228516,-0.08041238784790039,0.3924674987792969,89.21729278564453,0.08094986528158188,0.0,0.3196255564689636,-0.8407367467880249,1.0123507976531982,89.26048278808594,-0.11506129801273346,0.0
1409,-0.0006914138793945312,1.0059788227081299,-0.012472152709960938,0.021242141723632812,-0.20254993438720703,0.23979568481445312,89.28858947753906,0.03937662020325661,0.0,0.31973177194595337,-0.8417494893074036,1.0135498046875,89.26078796386719,-0.11498553305864334,0.0
1414,0.0037031173706054688,1.0047581195831299,-0.014425277709960938,-0.16196393966674805,-0.06514549255371094,0.2550630569458008,89.15079498291016,-0.2111455202102661,0.0,0.3189219534397125,-0.8420752286911011,1.0148251056671143,89.25921630859375,-0.11598185449838638,0.0
1419,0.005412101745605469,1.0052464008331299,-0.018575668334960938,-0.22303247451782227,0.011190414428710938,0.316131591796875,88.8973617553711,-0.30841657519340515,0.0,0.31780678033828735,-0.842019259929657,1.0164058208465576,89.25557708740234,-0.11727192252874374,0.0
1424,0.0010175704956054688,1.0071995258331299,-0.0068569183349609375,-0.22303247451782227,-0.03461122512817383,0.3466658592224121,89.60566711425781,-0.05788438394665718,0.0,0.3166916072368622,-0.8421922922134399,1.018139123916626,89.25691986083984,-0.11702877283096313,0.0
1430,0.0022382736206054688,1.0042698383331299,-0.016134262084960938,-0.26883411407470703,0.1943964958190918,0.23979568481445312,89.07077026367188,-0.1276816874742508,0.0,0.31534743309020996,-0.8412203192710876,1.0193381309509277,89.25428771972656,-0.11613797396421432,0.0
1435,4.100799560546875e-05,1.0089085102081299,-0.013204574584960938,-0.22303247451782227,-0.004076957702636719,0.2855973243713379,89.25015258789062,-0.0023286391515284777,0.0,0.31400924921035767,-0.8412447571754456,1.0210517644882202,89.2529296875,-0.11536583304405212,0.0
1440,0.0017499923706054688,1.0074436664581299,-0.013448715209960938,-0.07036113739013672,-0.06514549255371094,0.636742115020752,89.2287368774414,-0.09951736778020859,0.0,0.3136574327945709,-0.8415704965591431,1.024235486984253,89.25241088867188,-0.11557845026254654,0.0
1445,0.0015058517456054688,1.0064671039581299,-0.009786605834960938,-0.19249820709228516,0.07225894927978516,0.2550630569458008,89.43633270263672,-0.08572044223546982,0.0,0.3126949369907379,-0.8412091732025146,1.0255107879638672,89.25273895263672,-0.11501102149486542,0.0
1450,0.0032148361206054688,1.0064671039581299,-0.0053920745849609375,-0.2077655792236328,-0.2788858413696289,0.27032995223999023,89.64263153076172,-0.18300972878932953,0.0,0.31165611743927,-0.8426036238670349,1.026862382888794,89.25443267822266,-0.11687059700489044,0.0
1455,0.00028514862060546875,1.0057346820831299,-0.017110824584960938,-0.10089540481567383,0.20966386795043945,0.11765861511230469,89.0251693725586,-0.01624230295419693,0.0,0.3111516535282135,-0.8415552973747253,1.027450680732727,89.25233459472656,-0.11512729525566101,0.0
1460,0.0019941329956054688,1.0052464008331299,-0.0073451995849609375,-0.22303247451782227,0.20966386795043945,0.3924674987792969,89.56620025634766,-0.11365591734647751,0.0,0.31003648042678833,-0.8405069708824158,1.0294129848480225,89.25341796875,-0.11407602578401566,0.0
1465,0.0010175704956054688,1.0025608539581299,-0.011983871459960938,-0.23829984664916992,0.28599977493286133,0.11765861511230469,89.31269836425781,-0.05814939737319946,0.0,0.30884498357772827,-0.8390769958496094,1.0300012826919556,89.25264739990234,-0.1122661828994751,0.0
1470,0.00028514862060546875,1.0042698383331299,-0.011007308959960938,-0.009292125701904297,0.1638622283935547,0.08712387084960938,89.371826171875,-0.01626737229526043,0.0,0.30879852175712585,-0.8382576704025269,1.0304368734359741,89.25343322753906,-0.1107838824391365,0.0
1475,0.0022382736206054688,1.0025608539581299,-0.008321762084960938,-0.22303247451782227,-0.09567975997924805,0.22452878952026367,89.50752258300781,-0.12791143357753754,0.0,0.3076833486557007,-0.8387360572814941,1.0315594673156738,89.25409698486328,-0.11137818545103073,0.0
1480,4.100799560546875e-05,1.0064671039581299,-0.011007308959960938,0.021242141723632812,-0.03461122512817383,0.33139896392822266,89.37339782714844,-0.0023343481589108706,0.0,0.30778956413269043,-0.8389090895652771,1.0332164764404297,89.25503540039062,-0.11079141497612,0.0
1485,0.004679679870605469,1.0076878070831299,-0.0063686370849609375,-0.19249820709228516,-0.1414813995361328,0.40773487091064453,89.55065155029297,-0.2660731077194214,0.0,0.3068270683288574,-0.8396164774894714,1.0352551937103271,89.25613403320312,-0.1125735491514206,0.0
1490,-0.0033769607543945312,1.0037815570831299,-0.0071010589599609375,-0.10089540481567383,-0.37048912048339844,0.4840707778930664,89.55118560791016,0.19275112450122833,0.0,0.3063226044178009,-0.8414689302444458,1.0376754999160767,89.25768280029297,-0.11229153722524643,0.0
1495,0.0015058517456054688,1.0074436664581299,-0.0071010589599609375,-0.039826393127441406,0.10279369354248047,0.11765861511230469,89.58717346191406,-0.08563927561044693,0.0,0.3061234652996063,-0.8409549593925476,1.0382637977600098,89.25977325439453,-0.11159604787826538,0.0
1500,0.0024824142456054688,1.0062229633331299,-0.012472152709960938,0.05177640914916992,0.1638622283935547,-0.05028057098388672,89.27592468261719,-0.14134109020233154,0.0,0.30638235807418823,-0.8401356339454651,1.0380123853683472,89.26013946533203,-0.11098887026309967,0.0
1505,0.0032148361206054688,1.0093967914581299,-0.013692855834960938,-0.32990312576293945,-0.04987812042236328,0.5146050453186035,89.20167541503906,-0.1824643909931183,0.0,0.3047328293323517,-0.8403850197792053,1.0405853986740112,89.25809478759766,-0.11173231899738312,0.0
1510,0.0019941329956054688,1.0059788227081299,-0.016622543334960938,-0.5131092071533203,-0.18728303909301758,0.27032995223999023,89.04656219482422,-0.11356069892644882,0.0,0.30216729640960693,-0.8413214087486267,1.041936993598938,89.25408172607422,-0.11267492175102234,0.0
1515,0.004191398620605469,1.0086643695831299,-0.016622543334960938,-0.024559497833251953,0.13332796096801758,0.5451393127441406,89.02632141113281,-0.23805288970470428,0.0,0.30204451084136963,-0.8406547904014587,1.0446627140045166,89.25238037109375,-0.11288159340620041,0.0
1520,0.0017499923706054688,1.0040256977081299,-0.011007308959960938,-0.07036113739013672,0.10279369354248047,0.1481928825378418,89.3639907836914,-0.09985905140638351,0.0,0.3016926944255829,-0.8401408195495605,1.0454037189483643,89.2528076171875,-0.11228100210428238,0.0
1525,0.0027265548706054688,1.0047581195831299,-0.0058803558349609375,0.17391395568847656,-0.15674829483032227,0.46880340576171875,89.63038635253906,-0.15547725558280945,0.0,0.30256226658821106,-0.8409245610237122,1.0477477312088013,89.25628662109375,-0.1133582815527916,0.0
1530,0.0017499923706054688,1.0079319477081299,-0.008321762084960938,-0.1772313117980957,0.026457786560058594,0.13292551040649414,89.51661682128906,-0.09947463124990463,0.0,0.3016761243343353,-0.8407922983169556,1.0484123229980469,89.25720977783203,-0.11313086748123169,0.0
1535,0.003947257995605469,1.0069553852081299,-0.013448715209960938,-0.36043739318847656,0.04172468185424805,0.11765861511230469,89.2025375366211,-0.2245778739452362,0.0,0.299873948097229,-0.8405836820602417,1.04900062084198,89.25504302978516,-0.11369417607784271,0.0
1540,0.0034589767456054688,1.0006077289581299,-0.008077621459960938,0.20444822311401367,-0.29415321350097656,0.6062078475952148,89.49685668945312,-0.198057159781456,0.0,0.30089619755744934,-0.8420544266700745,1.0520316362380981,89.25772857666016,-0.11573772132396698,0.0
1545,0.0032148361206054688,1.0076878070831299,-0.010519027709960938,-0.1772313117980957,0.31653404235839844,0.4535360336303711,89.37461853027344,-0.1827806979417801,0.0,0.3000100553035736,-0.8404717445373535,1.0542993545532227,89.25765991210938,-0.11462900787591934,0.0
1550,0.0032148361206054688,1.0057346820831299,-0.010519027709960938,-0.2077655792236328,0.34706830978393555,0.6062078475952148,89.37340545654297,-0.18313561379909515,0.0,0.2989712357521057,-0.8387364149093628,1.0573303699493408,89.25743103027344,-0.11337853223085403,0.0
1555,-0.0006914138793945312,1.0074436664581299,-0.0036830902099609375,-0.11616230010986328,-0.23308420181274414,0.33139896392822266,89.78687286376953,0.039322126656770706,0.0,0.2983904182910919,-0.839901864528656,1.0589873790740967,89.26050567626953,-0.11348238587379456,0.0
1560,0.0005292892456054688,1.0052464008331299,-0.010030746459960938,-0.19249820709228516,0.011190414428710938,0.33139896392822266,89.42750549316406,-0.0301662627607584,0.0,0.2974279224872589,-0.8398458957672119,1.0606443881988525,89.26070404052734,-0.11285228282213211,0.0
1565,-0.00020313262939453125,1.0103733539581299,-0.008565902709960938,-0.16196393966674805,0.10279369354248047,0.2550630569458008,89.51412200927734,0.011518736369907856,0.0,0.29661810398101807,-0.8393319249153137,1.0619196891784668,89.26165008544922,-0.11148463189601898,0.0
1570,0.0032148361206054688,1.0054905414581299,-0.0056362152099609375,-0.1772313117980957,-0.2483515739440918,0.49933767318725586,89.63026428222656,-0.18318721652030945,0.0,0.29573196172714233,-0.8405736684799194,1.0644164085388184,89.26331329345703,-0.11321180313825607,0.0
1576,0.0022382736206054688,1.0032932758331299,-0.011007308959960938,-0.1772313117980957,0.11806058883666992,0.5756735801696777,89.35855865478516,-0.12781476974487305,0.0,0.2948458194732666,-0.839983344078064,1.067294716835022,89.26309204101562,-0.1127261221408844,0.0
1581,-0.00044727325439453125,1.0074436664581299,-0.0007534027099609375,-0.05509376525878906,-0.1109471321105957,0.5146050453186035,89.9501724243164,0.02543751336634159,0.0,0.2945152521133423,-0.8406490087509155,1.0703823566436768,89.26750946044922,-0.11243361979722977,0.0
1586,0.0017499923706054688,1.0098850727081299,-0.009786605834960938,-0.2841014862060547,-0.17201566696166992,0.5604066848754883,89.43596649169922,-0.09928096830844879,0.0,0.2930947542190552,-0.8415091037750244,1.0731843709945679,89.26726531982422,-0.11319703608751297,0.0
1591,0.0024824142456054688,1.0018284320831299,-0.016134262084960938,-0.07036113739013672,-0.15674829483032227,0.7283453941345215,89.06649017333984,-0.14195357263088226,0.0,0.29274293780326843,-0.842292845249176,1.0768260955810547,89.26553344726562,-0.11417365074157715,0.0
1596,0.0027265548706054688,1.0054905414581299,-0.010763168334960938,0.03650951385498047,0.07225894927978516,0.2550630569458008,89.3673324584961,-0.15535776317119598,0.0,0.29292547702789307,-0.8419315218925476,1.078101396560669,89.26641845703125,-0.11409866809844971,0.0
1601,0.0022382736206054688,1.0084202289581299,-0.012228012084960938,0.1586465835571289,0.14859485626220703,0.33139896392822266,89.29373168945312,-0.12716324627399445,0.0,0.29371869564056396,-0.8411885499954224,1.0797584056854248,89.26739501953125,-0.1134508028626442,0.0
1606,0.0007734298706054688,1.0067112445831299,-0.014181137084960938,-0.08562803268432617,-0.1414813995361328,0.1787271499633789,89.1917495727539,-0.044014472514390945,0.0,0.29329055547714233,-0.8418959379196167,1.0806519985198975,89.26644897460938,-0.11367527395486832,0.0
1611,0.0015058517456054688,1.0089085102081299,-0.014913558959960938,0.05177640914916992,0.27073240280151367,0.5146050453186035,89.14881896972656,-0.08550771325826645,0.0,0.29354944825172424,-0.8405422568321228,1.0832250118255615,89.26589965820312,-0.1121370866894722,0.0
1616,0.003947257995605469,1.0123264789581299,-0.011983871459960938,0.06704378128051758,0.08752632141113281,0.1787271499633789,89.28592681884766,-0.2233906090259552,0.0,0.29388466477394104,-0.8401046395301819,1.0841186046600342,89.26637268066406,-0.11246772110462189,0.0
1621,0.004191398620605469,1.0045139789581299,-0.014181137084960938,-0.009292125701904297,-0.29415321350097656,0.23979568481445312,89.15660095214844,-0.23904508352279663,0.0,0.2938382029533386,-0.8415753841400146,1.085317611694336,89.26557159423828,-0.1147986426949501,0.0
1626,0.004923820495605469,1.0071995258331299,-0.009786605834960938,-0.32990312576293945,-0.3399543762207031,0.7894139289855957,89.3768081665039,-0.280082106590271,0.0,0.2921886742115021,-0.8432751297950745,1.0892646312713623,89.26470184326172,-0.11762260645627975,0.0
1631,0.00028514862060546875,1.0054905414581299,-0.014669418334960938,-0.4062385559082031,0.026457786560058594,0.27032995223999023,89.16399383544922,-0.016246870160102844,0.0,0.2901574671268463,-0.8431428670883179,1.090616226196289,89.26199340820312,-0.11679485440254211,0.0
1636,-0.00020313262939453125,1.0071995258331299,-0.014181137084960938,-0.039826393127441406,-0.43155765533447266,0.19399404525756836,89.1932601928711,0.011554303579032421,0.0,0.28995832800865173,-0.8453006744384766,1.0915862321853638,89.26132202148438,-0.11805655807256699,0.0
1641,0.005412101745605469,1.0047581195831299,-0.015401840209960938,0.11284542083740234,0.11806058883666992,0.30086469650268555,89.06915283203125,-0.3085829019546509,0.0,0.2905225455760956,-0.8447103500366211,1.093090534210205,89.26056671142578,-0.11877792328596115,0.0
1646,0.004191398620605469,1.0101292133331299,-0.014669418334960938,0.1281123161315918,-0.06514549255371094,0.316131591796875,89.13469696044922,-0.23771488666534424,0.0,0.2911631166934967,-0.8450360894203186,1.0946712493896484,89.26033782958984,-0.11991734802722931,0.0
1651,-0.00044727325439453125,1.0069553852081299,-0.013204574584960938,-0.10089540481567383,0.14859485626220703,0.13292551040649414,89.2482681274414,0.02544766664505005,0.0,0.2906586527824402,-0.8442931175231934,1.095335841178894,89.25975799560547,-0.11818265169858932,0.0
1656,0.0024824142456054688,1.0042698383331299,-0.009054183959960938,0.1586465835571289,-0.04987812042236328,0.316131591796875,89.46439361572266,-0.14162108302116394,0.0,0.2914518713951111,-0.8445425033569336,1.0969165563583374,89.26194763183594,-0.11859099566936493,0.0
1661,-0.0009355545043945312,1.0057346820831299,-0.012960433959960938,-0.2841014862060547,-0.3552217483520508,0.20926141738891602,89.25977325439453,0.05329323932528496,0.0,0.290031373500824,-0.8463186025619507,1.0979628562927246,89.2605209350586,-0.11917724460363388,0.0
1666,0.0017499923706054688,1.0079319477081299,-0.0071010589599609375,-0.3146357536315918,0.10279369354248047,0.23979568481445312,89.58427429199219,-0.09947555512189865,0.0,0.2884581983089447,-0.8458046317100525,1.0991618633270264,89.26117706298828,-0.11853186041116714,0.0
1671,0.0019941329956054688,1.0037815570831299,-0.016134262084960938,0.08231067657470703,-0.3399543762207031,0.4840707778930664,89.07212829589844,-0.11381011456251144,0.0,0.2888697385787964,-0.8475043773651123,1.1015821695327759,89.26029205322266,-0.1201876699924469,0.0
1676,4.100799560546875e-05,1.0067112445831299,-0.0073451995849609375,0.021242141723632812,-0.43155765533447266,0.19399404525756836,89.58195495605469,-0.002333859447389841,0.0,0.28897595405578613,-0.849662184715271,1.1025521755218506,89.2625961303711,-0.12152417004108429,0.0
1681,0.004435539245605469,1.0086643695831299,-0.015157699584960938,-0.05509376525878906,-0.04987812042236328,0.3466658592224121,89.10295104980469,-0.2519245743751526,0.0,0.28870049118995667,-0.8499115705490112,1.104285478591919,89.26123046875,-0.12266389280557632,0.0
1686,0.0032148361206054688,1.0062229633331299,-0.009786605834960938,-0.11616230010986328,0.11806058883666992,0.10239124298095703,89.41345977783203,-0.1830480992794037,0.0,0.28811967372894287,-0.8493212461471558,1.1047974824905396,89.2616958618164,-0.1224905401468277,0.0
1691,0.005167961120605469,1.0030491352081299,-0.0073451995849609375,-0.05509376525878906,0.026457786560058594,0.5604066848754883,89.48699951171875,-0.2951917350292206,0.0,0.2878442108631134,-0.8491889834403992,1.1075994968414307,89.2629623413086,-0.12353964895009995,0.0
1696,0.004923820495605469,1.0071995258331299,-0.017110824584960938,-0.2077655792236328,-0.1109471321105957,0.10239124298095703,88.98723602294922,-0.2800549268722534,0.0,0.2868053913116455,-0.8497437238693237,1.1081115007400513,89.26004791259766,-0.12516005337238312,0.0
1701,0.003947257995605469,1.0076878070831299,-0.010763168334960938,0.1281123161315918,-0.06514549255371094,0.5146050453186035,89.34819030761719,-0.22442185878753662,0.0,0.28744596242904663,-0.8500694632530212,1.1106845140457153,89.26128387451172,-0.12616154551506042,0.0
1706,0.0032148361206054688,1.0028049945831299,-0.0049037933349609375,0.23498249053955078,-0.17201566696166992,0.23979568481445312,89.66497802734375,-0.1836784929037094,0.0,0.28862088918685913,-0.8509295582771301,1.111883521080017,89.26520538330078,-0.1274084746837616,0.0
1711,0.004191398620605469,1.0047581195831299,-0.0046596527099609375,0.03650951385498047,-0.004076957702636719,0.1481928825378418,89.64260864257812,-0.23900824785232544,0.0,0.28880342841148376,-0.8509499430656433,1.1126245260238647,89.26795959472656,-0.12819044291973114,0.0
1716,0.0022382736206054688,1.0052464008331299,-0.012960433959960938,0.17391395568847656,-0.26361894607543945,0.4535360336303711,89.25040435791016,-0.1275635063648224,0.0,0.28967300057411194,-0.8522680401802063,1.1148922443389893,89.26870727539062,-0.1294952630996704,0.0
1721,0.0010175704956054688,1.0054905414581299,-0.008810043334960938,-0.19249820709228516,0.13332796096801758,0.5451393127441406,89.4946517944336,-0.057981885969638824,0.0,0.28871050477027893,-0.8516014218330383,1.1176179647445679,89.26929473876953,-0.12834541499614716,0.0
1727,-0.0006914138793945312,1.0125706195831299,-0.0051479339599609375,0.09757804870605469,-0.12621402740478516,0.3924674987792969,89.70609283447266,0.03912278264760971,0.0,0.2892959713935852,-0.8523586988449097,1.119972825050354,89.27286529541016,-0.127952441573143,0.0
1732,0.0015058517456054688,1.0093967914581299,-0.012472152709960938,-0.11616230010986328,-0.004076957702636719,0.6062078475952148,89.28694915771484,-0.08546916395425797,0.0,0.2887151539325714,-0.8523790836334229,1.1230038404464722,89.27238464355469,-0.12768231332302094,0.0
1737,0.0012617111206054688,1.0062229633331299,-0.015401840209960938,-0.2841014862060547,0.04172468185424805,0.43826913833618164,89.12012481689453,-0.07183519005775452,0.0,0.2872946560382843,-0.852170467376709,1.1251951456069946,89.26993560791016,-0.12709355354309082,0.0
1742,-0.00020313262939453125,1.0062229633331299,-0.013448715209960938,-0.1466965675354004,-0.26361894607543945,0.23979568481445312,89.23416900634766,0.011565630324184895,0.0,0.28656116127967834,-0.853488564491272,1.1263941526412964,89.26896667480469,-0.12745562195777893,0.0
1747,-0.0006914138793945312,1.0079319477081299,-0.015157699584960938,0.021242141723632812,-0.17201566696166992,0.0107879638671875,89.13753509521484,0.0392988957464695,0.0,0.2866673767566681,-0.8543486595153809,1.1264480352401733,89.26817321777344,-0.1271713376045227,0.0
1752,0.0019941329956054688,1.0037815570831299,-0.015157699584960938,-0.08562803268432617,-0.17201566696166992,-0.06554794311523438,89.12741088867188,-0.11381184309720993,0.0,0.28623923659324646,-0.8552087545394897,1.1261203289031982,89.26678466796875,-0.12793436646461487,0.0
1757,0.0037031173706054688,1.0084202289581299,-0.0071010589599609375,0.2960515022277832,-0.18728303909301758,0.23979568481445312,89.54498291015625,-0.2103952020406723,0.0,0.2877194881439209,-0.8561451435089111,1.1273193359375,89.27014923095703,-0.1294269859790802,0.0
1762,-0.00044727325439453125,1.0086643695831299,-0.012960433959960938,0.20444822311401367,0.14859485626220703,0.6214752197265625,89.2634048461914,0.025404637679457664,0.0,0.28874173760414124,-0.8554021716117859,1.1304267644882202,89.2711181640625,-0.12763310968875885,0.0
1767,4.100799560546875e-05,1.0057346820831299,-0.0066127777099609375,-0.19249820709228516,-0.12621402740478516,0.316131591796875,89.62327575683594,-0.002336137229576707,0.0,0.2877792418003082,-0.8560332655906677,1.1320074796676636,89.27256774902344,-0.12740562856197357,0.0
1772,0.0027265548706054688,1.0037815570831299,-0.010030746459960938,-0.1466965675354004,0.10279369354248047,0.4535360336303711,89.40669250488281,-0.1556234061717987,0.0,0.28704574704170227,-0.8555192947387695,1.134275197982788,89.27275085449219,-0.12708747386932373,0.0
1777,0.0032148361206054688,1.0115940570831299,-0.009542465209960938,-0.19249820709228516,-0.3857560157775879,0.4840707778930664,89.42969512939453,-0.18207672238349915,0.0,0.28608325123786926,-0.8574481010437012,1.1366955041885376,89.27286529541016,-0.12937775254249573,0.0
1782,0.0007734298706054688,1.0059788227081299,-0.009786605834960938,0.14337968826293945,-0.18728303909301758,0.423001766204834,89.44087982177734,-0.04404880106449127,0.0,0.2868001461029053,-0.8583844900131226,1.1388105154037476,89.27471923828125,-0.12972663342952728,0.0
1787,0.005167961120605469,1.0091526508331299,-0.011251449584960938,-0.1466965675354004,0.2249307632446289,0.40773487091064453,89.29705810546875,-0.2933960258960724,0.0,0.2860666513442993,-0.8572598099708557,1.140849232673645,89.2741470336914,-0.12972401082515717,0.0
1792,-0.0009355545043945312,1.0076878070831299,-0.013692855834960938,-0.07036113739013672,-0.2178173065185547,0.2550630569458008,89.21967315673828,0.05318945273756981,0.0,0.2857148349285126,-0.8583489060401917,1.1421245336532593,89.27342987060547,-0.1295606940984726,0.0
1797,0.005412101745605469,1.0074436664581299,-0.013448715209960938,-0.3146357536315918,-0.15674829483032227,0.3924674987792969,89.17558288574219,-0.3077690601348877,0.0,0.2841416597366333,-0.8591326475143433,1.1440868377685547,89.27120208740234,-0.13155168294906616,0.0
1802,0.0027265548706054688,1.0091526508331299,-0.016378402709960938,-0.039826393127441406,-0.06514549255371094,0.3924674987792969,89.05738830566406,-0.1547824591398239,0.0,0.2839425206184387,-0.8594583868980408,1.14604914188385,89.2695541381836,-0.13203321397304535,0.0
1807,-0.00020313262939453125,1.0045139789581299,-0.012228012084960938,-0.13142967224121094,-0.06514549255371094,0.5756735801696777,89.30247497558594,0.011585483327507973,0.0,0.28328537940979004,-0.8597841262817383,1.1489274501800537,89.26912689208984,-0.1313801109790802,0.0
1812,-0.0006914138793945312,1.0050022602081299,-0.013204574584960938,-0.26883411407470703,-0.4773592948913574,0.2855973243713379,89.24620819091797,0.03941451013088226,0.0,0.2819412052631378,-0.862170934677124,1.1503554582595825,89.26763916015625,-0.13258962333202362,0.0
1817,0.006388664245605469,1.0079319477081299,-0.010519027709960938,0.005974769592285156,-0.12621402740478516,0.7436127662658691,89.3004379272461,-0.36313825845718384,0.0,0.2819710671901703,-0.8628020286560059,1.1540734767913818,89.26789093017578,-0.13478317856788635,0.0
1822,0.0010175704956054688,1.0037815570831299,-0.011495590209960938,-0.05509376525878906,0.3318009376525879,0.46880340576171875,89.34129333496094,-0.05807902291417122,0.0,0.2816956043243408,-0.8611430525779724,1.1564174890518188,89.26811981201172,-0.13261432945728302,0.0
1827,0.0015058517456054688,1.0059788227081299,-0.009298324584960938,-0.039826393127441406,0.24019813537597656,0.27032995223999023,89.4635238647461,-0.08576244115829468,0.0,0.28149646520614624,-0.8599420785903931,1.1577690839767456,89.26924896240234,-0.1311032921075821,0.0
1832,-0.0006914138793945312,1.0035374164581299,-0.013936996459960938,0.14337968826293945,-0.1109471321105957,0.636742115020752,89.20335388183594,0.039471644908189774,0.0,0.28221336007118225,-0.8604968190193176,1.1609528064727783,89.26951599121094,-0.130496084690094,0.0
1837,4.100799560546875e-05,1.0035374164581299,-0.014181137084960938,-0.22303247451782227,-0.2483515739440918,0.6062078475952148,89.19039154052734,-0.002341069281101227,0.0,0.2810981869697571,-0.8617385625839233,1.1639838218688965,89.26787567138672,-0.13085950911045074,0.0
1842,0.0022382736206054688,1.0098850727081299,-0.014913558959960938,0.03650951385498047,0.1943964958190918,0.2855973243713379,89.14447021484375,-0.12697428464889526,0.0,0.2812807261943817,-0.860766589641571,1.1654118299484253,89.26721954345703,-0.12986774742603302,0.0
1847,0.0015058517456054688,1.0069553852081299,-0.013448715209960938,-0.11616230010986328,0.11806058883666992,0.4840707778930664,89.23003387451172,-0.08567528426647186,0.0,0.2806999087333679,-0.8601762652397156,1.1678321361541748,89.26638793945312,-0.12898163497447968,0.0
1852,0.0037031173706054688,1.0106174945831299,-0.012228012084960938,-0.26883411407470703,-0.26361894607543945,-0.41669273376464844,89.27569580078125,-0.20992761850357056,0.0,0.2793557345867157,-0.8614943623542786,1.1657487154006958,89.2651138305664,-0.13083979487419128,0.0
1857,0.0019941329956054688,1.0050022602081299,-0.008565902709960938,0.06704378128051758,-0.20254993438720703,-0.01974630355834961,89.49860382080078,-0.11368243396282196,0.0,0.2796909511089325,-0.8625071048736572,1.1656500101089478,89.26702880859375,-0.1317293345928192,0.0
1862,0.0027265548706054688,1.0081760883331299,-0.016866683959960938,0.18918085098266602,0.4997401237487793,0.3772001266479492,89.02909851074219,-0.15493111312389374,0.0,0.28063684701919556,-0.8600084185600281,1.1675360202789307,89.266357421875,-0.12940484285354614,0.0
1867,0.004191398620605469,1.0042698383331299,-0.010274887084960938,-0.22303247451782227,0.08752632141113281,0.3924674987792969,89.3669204711914,-0.23911450803279877,0.0,0.2795216739177704,-0.8595708012580872,1.169498324394226,89.26593017578125,-0.12971365451812744,0.0
1873,0.0029706954956054688,1.0015842914581299,-0.009298324584960938,0.23498249053955078,0.4234042167663574,0.5146050453186035,89.44161987304688,-0.16993126273155212,0.0,0.2806966006755829,-0.8574537634849548,1.1720713376998901,89.2682876586914,-0.1278834491968155,0.0
1878,0.0034589767456054688,1.0059788227081299,-0.015401840209960938,0.03650951385498047,0.14859485626220703,0.16345977783203125,89.10100555419922,-0.19698303937911987,0.0,0.28091564774513245,-0.8565621972084045,1.1730520725250244,89.26737213134766,-0.1274673044681549,0.0
1883,0.005167961120605469,1.0047581195831299,-0.009786605834960938,0.21971559524536133,-0.2788858413696289,0.43826913833618164,89.3689193725586,-0.294683575630188,0.0,0.28201422095298767,-0.8579566478729248,1.1752433776855469,89.26914978027344,-0.12998776137828827,0.0
1888,0.005900382995605469,1.0052464008331299,-0.0046596527099609375,-0.1466965675354004,0.04172468185424805,0.3466658592224121,89.57147979736328,-0.3362951874732971,0.0,0.2812807261943817,-0.8577480316162109,1.1769766807556152,89.27047729492188,-0.13118110597133636,0.0
1893,4.100799560546875e-05,1.0074436664581299,-0.0073451995849609375,0.05177640914916992,-0.17201566696166992,0.1481928825378418,89.58226013183594,-0.0023321628104895353,0.0,0.2815396189689636,-0.8586081266403198,1.177717685699463,89.2728500366211,-0.1311608850955963,0.0
1898,0.00028514862060546875,1.0074436664581299,-0.014181137084960938,-0.2077655792236328,0.08752632141113281,0.16345977783203125,89.19337463378906,-0.01621549017727375,0.0,0.2805007994174957,-0.8581705093383789,1.178534984588623,89.27127838134766,-0.12994633615016937,0.0
1903,-0.0011796951293945312,1.0074436664581299,-0.011739730834960938,0.005974769592285156,0.14859485626220703,0.19399404525756836,89.3290023803711,0.0670875534415245,0.0,0.2805306613445282,-0.8574275374412537,1.1795049905776978,89.27169799804688,-0.12787194550037384,0.0
1908,-0.0021562576293945312,1.0074436664581299,-0.0063686370849609375,0.1586465835571289,-0.04987812042236328,0.2550630569458008,89.61760711669922,0.12262899428606033,0.0,0.2813238799571991,-0.8576769232749939,1.180780291557312,89.27483367919922,-0.1264209747314453,0.0
1913,4.100799560546875e-05,1.0069553852081299,-0.011251449584960938,-0.16196393966674805,-0.004076957702636719,0.20926141738891602,89.35981750488281,-0.0023332100827246904,0.0,0.28051406145095825,-0.8576973080635071,1.1818265914916992,89.27460479736328,-0.12559999525547028,0.0
1918,0.005167961120605469,1.0054905414581299,-0.0071010589599609375,-0.29936838150024414,0.011190414428710938,0.23979568481445312,89.49955749511719,-0.2944755256175995,0.0,0.27901721000671387,-0.857641339302063,1.183025598526001,89.27464294433594,-0.12668895721435547,0.0
1923,0.0019941329956054688,1.0074436664581299,-0.012472152709960938,-0.3451700210571289,-0.08041238784790039,0.36193323135375977,89.28170776367188,-0.11340237408876419,0.0,0.27729135751724243,-0.858043372631073,1.1848353147506714,89.27297973632812,-0.12699827551841736,0.0
1928,0.0015058517456054688,1.0028049945831299,-0.009786605834960938,0.021242141723632812,-0.18728303909301758,0.2550630569458008,89.43427276611328,-0.08603345602750778,0.0,0.2773975729942322,-0.8589797616004944,1.1861106157302856,89.27417755126953,-0.12765085697174072,0.0
1933,0.0005292892456054688,1.0054905414581299,-0.012228012084960938,-0.23829984664916992,-0.3399543762207031,0.5146050453186035,89.30259704589844,-0.030158210545778275,0.0,0.2762060761451721,-0.8606795072555542,1.1886836290359497,89.27318572998047,-0.12867888808250427,0.0
1938,-0.0009355545043945312,1.0018284320831299,-0.011007308959960938,0.08231067657470703,-0.15674829483032227,0.6520094871520996,89.36823272705078,0.05350225046277046,0.0,0.2766176164150238,-0.8614632487297058,1.191943645477295,89.27423858642578,-0.12822386622428894,0.0
1943,0.0017499923706054688,1.0062229633331299,-0.0058803558349609375,0.005974769592285156,0.1943964958190918,0.10239124298095703,89.6506576538086,-0.09964527189731598,0.0,0.2766474783420563,-0.8604912757873535,1.1924556493759155,89.27681732177734,-0.1270650178194046,0.0
1948,-0.0009355545043945312,1.0028049945831299,-0.013204574584960938,-0.2535672187805176,-0.32468748092651367,-0.01974630355834961,89.24370574951172,0.053448740392923355,0.0,0.27537962794303894,-0.8621147274971008,1.1923569440841675,89.27533721923828,-0.1274559050798416,0.0
1953,-0.0014238357543945312,0.9998753070831299,-0.009298324584960938,-0.039826393127441406,-0.416290283203125,0.16345977783203125,89.46098327636719,0.08158636838197708,0.0,0.27518048882484436,-0.8641961812973022,1.1931742429733276,89.27639770507812,-0.12810900807380676,0.0
1958,0.0032148361206054688,1.0057346820831299,-0.013692855834960938,-0.009292125701904297,-0.37048912048339844,0.36193323135375977,89.19876861572266,-0.18312865495681763,0.0,0.27513402700424194,-0.8660486340522766,1.194983959197998,89.27582550048828,-0.13032107055187225,0.0
1963,0.0022382736206054688,1.0086643695831299,-0.017110824584960938,-0.05509376525878906,-0.04987812042236328,0.3466658592224121,89.01985931396484,-0.12712353467941284,0.0,0.2748585641384125,-0.8662980198860168,1.1967172622680664,89.27381896972656,-0.1305471509695053,0.0
1968,-0.0014238357543945312,1.0037815570831299,-0.011983871459960938,-0.26883411407470703,0.026457786560058594,-0.05028057098388672,89.3111801147461,0.08126659691333771,0.0,0.27351438999176025,-0.8661657571792603,1.1964658498764038,89.27273559570312,-0.1289837509393692,0.0
1973,-0.0009355545043945312,1.0106174945831299,-0.008810043334960938,-0.1466965675354004,0.27073240280151367,0.43826913833618164,89.49772644042969,0.05303813889622688,0.0,0.2727808952331543,-0.8648120760917664,1.1986571550369263,89.27352905273438,-0.1264089196920395,0.0
1978,0.0015058517456054688,1.0093967914581299,-0.018575668334960938,0.05177640914916992,-0.09567975997924805,0.36193323135375977,88.9422607421875,-0.08546122163534164,0.0,0.2730397880077362,-0.8652904629707336,1.2004668712615967,89.27154541015625,-0.12660737335681915,0.0
1983,0.0029706954956054688,1.0076878070831299,-0.016134262084960938,-0.009292125701904297,-0.019343852996826172,-0.01974630355834961,89.06729125976562,-0.16888763010501862,0.0,0.2729933261871338,-0.8653872013092041,1.2003681659698486,89.2701187133789,-0.12698909640312195,0.0
1988,0.0037031173706054688,1.0035374164581299,-0.008810043334960938,-0.13142967224121094,0.3012666702270508,0.40773487091064453,89.45439147949219,-0.21141599118709564,0.0,0.2723361849784851,-0.8638808727264404,1.202406883239746,89.27071380615234,-0.12606321275234222,0.0
1993,0.0029706954956054688,1.0076878070831299,-0.009542465209960938,-0.1466965675354004,-0.09567975997924805,0.3466658592224121,89.4317626953125,-0.1689017117023468,0.0,0.27160269021987915,-0.8643592596054077,1.2041401863098145,89.27107238769531,-0.126827672123909,0.0
1998,0.0017499923706054688,1.0052464008331299,-0.009786605834960938,-0.039826393127441406,-0.2178173065185547,0.316131591796875,89.43336486816406,-0.09973905235528946,0.0,0.27140355110168457,-0.8654483556747437,1.2057209014892578,89.27197265625,-0.1277265101671219,0.0
2003,-0.0009355545043945312,1.0103733539581299,-0.0068569183349609375,-0.22303247451782227,-0.40102338790893555,0.36193323135375977,89.6075668334961,0.05305175110697746,0.0,0.2702883780002594,-0.8674534559249878,1.2075306177139282,89.27313232421875,-0.12849779427051544,0.0
2008,0.0012617111206054688,1.0071995258331299,-0.010030746459960938,-0.2535672187805176,0.20966386795043945,0.5756735801696777,89.42491149902344,-0.07177038490772247,0.0,0.26902052760124207,-0.8664051294326782,1.2104089260101318,89.27289581298828,-0.12707370519638062,0.0
2013,0.004191398620605469,1.0071995258331299,-0.013692855834960938,0.5708608627319336,0.011190414428710938,0.13292551040649414,89.1854476928711,-0.23840944468975067,0.0,0.2718748450279236,-0.8663491606712341,1.2110735177993774,89.27513885498047,-0.1277693659067154,0.0
2019,-0.005330085754394531,1.0037815570831299,-0.0075893402099609375,-0.49784183502197266,0.04172468185424805,0.2855973243713379,89.47064971923828,0.30422934889793396,0.0,0.2693856358528137,-0.8661405444145203,1.2125015258789062,89.27398681640625,-0.12464786320924759,0.0
2024,4.100799560546875e-05,1.0074436664581299,-0.016378402709960938,-0.1772313117980957,-0.06514549255371094,0.2855973243713379,89.06859588623047,-0.002331916708499193,0.0,0.26832225918769836,-0.8665314316749573,1.2142151594161987,89.27154541015625,-0.12420875579118729,0.0
2029,-0.0009355545043945312,1.0074436664581299,-0.012228012084960938,-0.32990312576293945,-0.2788858413696289,0.1787271499633789,89.30256652832031,0.05320333316922188,0.0,0.2666727304458618,-0.8679258823394775,1.2151087522506714,89.2701187133789,-0.1243940219283104,0.0
2034,0.0012617111206054688,1.0057346820831299,-0.0049037933349609375,-0.32990312576293945,-0.04987812042236328,0.3772001266479492,89.71154022216797,-0.0718776285648346,0.0,0.26502320170402527,-0.8681752681732178,1.2169947624206543,89.27146911621094,-0.12428667396306992,0.0
2039,-0.004597663879394531,1.0050022602081299,-0.010763168334960938,-0.19249820709228516,-0.46209192276000977,0.2550630569458008,89.33277893066406,0.2620986998081207,0.0,0.26406070590019226,-0.8704857230186462,1.2182700634002686,89.27092742919922,-0.12396983057260513,0.0
2044,-0.00044727325439453125,1.0096409320831299,-0.012960433959960938,-0.1772313117980957,-0.004076957702636719,0.1481928825378418,89.26411437988281,0.025380069389939308,0.0,0.26317456364631653,-0.8705061078071594,1.2190110683441162,89.27000427246094,-0.12298081070184708,0.0
2049,0.004435539245605469,1.0059788227081299,-0.013936996459960938,0.03650951385498047,-0.2178173065185547,0.056589603424072266,89.16704559326172,-0.25260138511657715,0.0,0.26335710287094116,-0.8715952038764954,1.2192940711975098,89.26949310302734,-0.12493828684091568,0.0
2054,0.0015058517456054688,1.0045139789581299,-0.011739730834960938,-0.19249820709228516,0.07225894927978516,0.4535360336303711,89.3249282836914,-0.08588530868291855,0.0,0.26239460706710815,-0.8712338805198669,1.2215617895126343,89.26891326904297,-0.12431564182043076,0.0
2059,0.0024824142456054688,1.0074436664581299,-0.012716293334960938,0.08231067657470703,-0.3552217483520508,0.2550630569458008,89.26318359375,-0.14116942882537842,0.0,0.26280614733695984,-0.873009979724884,1.2228370904922485,89.269287109375,-0.126193568110466,0.0
2064,-0.0014238357543945312,1.0125706195831299,-0.009054183959960938,-0.1772313117980957,0.10279369354248047,0.3924674987792969,89.48139190673828,0.0805637314915657,0.0,0.2619200050830841,-0.8724960088729858,1.224799394607544,89.26983642578125,-0.12428707629442215,0.0
2069,-0.0016679763793945312,1.0054905414581299,-0.021749496459960938,-0.5436434745788574,0.14859485626220703,0.33139896392822266,88.75720977783203,0.09502384066581726,0.0,0.2592017948627472,-0.8717530369758606,1.2264564037322998,89.26367950439453,-0.12206868827342987,0.0
2074,0.0010175704956054688,1.0054905414581299,-0.009542465209960938,-0.16196393966674805,0.08752632141113281,0.36193323135375977,89.45317840576172,-0.057981498539447784,0.0,0.25839197635650635,-0.8713154196739197,1.2282661199569702,89.26415252685547,-0.12120148539543152,0.0
2079,0.0017499923706054688,1.0079319477081299,-0.016622543334960938,-0.13142967224121094,0.27073240280151367,0.07185697555541992,89.04995727539062,-0.09946449846029282,0.0,0.25773483514785767,-0.8699617385864258,1.2286254167556763,89.26205444335938,-0.1197102889418602,0.0
2084,0.0024824142456054688,1.0071995258331299,-0.010274887084960938,-0.29936838150024414,0.10279369354248047,0.23979568481445312,89.3987045288086,-0.14120754599571228,0.0,0.2562379837036133,-0.8694477677345276,1.229824423789978,89.26148986816406,-0.1193448081612587,0.0
2089,0.004679679870605469,1.0084202289581299,-0.015157699584960938,-0.08562803268432617,0.17912960052490234,0.11765861511230469,89.09874725341797,-0.2658551335334778,0.0,0.25580984354019165,-0.8685521483421326,1.2304127216339111,89.25997161865234,-0.1194433867931366,0.0
2094,0.0027265548706054688,1.0047581195831299,-0.008810043334960938,0.20444822311401367,-0.12621402740478516,0.5146050453186035,89.47412109375,-0.15547393262386322,0.0,0.256832093000412,-0.8691832423210144,1.2329857349395752,89.2624282836914,-0.12031317502260208,0.0
2099,-0.00020313262939453125,1.0025608539581299,-0.009054183959960938,-0.2535672187805176,-0.12621402740478516,-0.01974630355834961,89.4824447631836,0.011608440428972244,0.0,0.25556424260139465,-0.8698143362998962,1.2328870296478271,89.26265716552734,-0.12005054950714111,0.0
2104,-0.0021562576293945312,1.0028049945831299,-0.014669418334960938,0.09757804870605469,-0.04987812042236328,0.026055335998535156,89.15290832519531,0.12318552285432816,0.0,0.2560521364212036,-0.8700637221336365,1.2330173254013062,89.26240539550781,-0.1186586394906044,0.0
2109,0.0024824142456054688,1.0103733539581299,-0.0071010589599609375,-0.2077655792236328,0.07225894927978516,0.30086469650268555,89.57342529296875,-0.14076782763004303,0.0,0.2550133168697357,-0.8697023987770081,1.2345216274261475,89.26347351074219,-0.11844878643751144,0.0
2114,-0.00020313262939453125,1.0030491352081299,-0.008321762084960938,-0.5283761024475098,-0.2178173065185547,0.4535360336303711,89.5245132446289,0.011602862738072872,0.0,0.2523714303970337,-0.870791494846344,1.236789345741272,89.26261138916016,-0.11865420639514923,0.0
2119,-0.0011796951293945312,1.0042698383331299,-0.014181137084960938,0.05177640914916992,-0.2178173065185547,-0.06554794311523438,89.18819427490234,0.06729743629693985,0.0,0.2526303231716156,-0.8718805909156799,1.2364616394042969,89.26236724853516,-0.11848318576812744,0.0
2124,0.0015058517456054688,1.0086643695831299,-0.008565902709960938,-0.009292125701904297,0.37760257720947266,0.5756735801696777,89.50597381591797,-0.08553466945886612,0.0,0.2525838613510132,-0.8699925541877747,1.2393399477005005,89.26396179199219,-0.11638595163822174,0.0
2129,0.00028514862060546875,1.0037815570831299,-0.011495590209960938,0.17391395568847656,-0.2178173065185547,0.22452878952026367,89.34365844726562,-0.0162751954048872,0.0,0.25345343351364136,-0.8710816502571106,1.2404625415802002,89.26536560058594,-0.11679349839687347,0.0
2134,0.003947257995605469,1.0052464008331299,-0.009786605834960938,-0.375704288482666,-0.29415321350097656,0.6520094871520996,89.39855194091797,-0.2249690592288971,0.0,0.25157490372657776,-0.8725523948669434,1.2437225580215454,89.26439666748047,-0.11898275464773178,0.0
2139,0.004435539245605469,1.0064671039581299,-0.009054183959960938,-0.16196393966674805,-0.06514549255371094,0.2550630569458008,89.42605590820312,-0.25249284505844116,0.0,0.2507650852203369,-0.8728781342506409,1.2449978590011597,89.26467895507812,-0.1202051043510437,0.0
2144,0.0017499923706054688,1.0062229633331299,-0.015401840209960938,0.14337968826293945,-0.26361894607543945,0.36193323135375977,89.11742401123047,-0.0996353030204773,0.0,0.2514819800853729,-0.8741962313652039,1.24680757522583,89.26439666748047,-0.12137587368488312,0.0
2149,-0.0014238357543945312,1.0076878070831299,-0.011739730834960938,-0.08562803268432617,-0.32468748092651367,0.1787271499633789,89.32763671875,0.08095184713602066,0.0,0.2510538399219513,-0.8758196830749512,1.2477011680603027,89.26439666748047,-0.12162673473358154,0.0
2154,0.003947257995605469,1.0081760883331299,-0.010519027709960938,0.005974769592285156,-0.004076957702636719,0.36193323135375977,89.36151123046875,-0.22431375086307526,0.0,0.25108370184898376,-0.8758400678634644,1.2495108842849731,89.26508331298828,-0.1223379373550415,0.0
2159,0.004435539245605469,1.0098850727081299,-0.010274887084960938,0.09757804870605469,-0.12621402740478516,0.40773487091064453,89.36508178710938,-0.25163546204566956,0.0,0.2515715956687927,-0.8764711618423462,1.2515496015548706,89.26624298095703,-0.12383463233709335,0.0
2164,4.100799560546875e-05,1.0057346820831299,-0.013448715209960938,0.03650951385498047,-0.09567975997924805,0.5451393127441406,89.23387908935547,-0.0023359789047390223,0.0,0.25175413489341736,-0.8769495487213135,1.2542753219604492,89.26620483398438,-0.12349255383014679,0.0
2170,0.0024824142456054688,1.0018284320831299,-0.013936996459960938,0.23498249053955078,0.04172468185424805,0.23979568481445312,89.19043731689453,-0.14195825159549713,0.0,0.25292906165122986,-0.8767409324645996,1.255474328994751,89.26686096191406,-0.12340952455997467,0.0
2175,0.004435539245605469,1.0052464008331299,-0.011983871459960938,-0.10089540481567383,-0.08041238784790039,0.3772001266479492,89.27171325683594,-0.25279173254966736,0.0,0.2523236870765686,-0.8772234320640564,1.2577375173568726,89.26629638671875,-0.12476126104593277,0.0
2180,0.0027265548706054688,1.0025608539581299,-0.008321762084960938,-0.23829984664916992,-0.1109471321105957,0.316131591796875,89.49954986572266,-0.15581530332565308,0.0,0.25113219022750854,-0.877778172492981,1.259318232536316,89.26668548583984,-0.12552163004875183,0.0
2185,0.0010175704956054688,1.0028049945831299,-0.011251449584960938,-0.2535672187805176,0.27073240280151367,0.5909409523010254,89.35454559326172,-0.058135736733675,0.0,0.2498643547296524,-0.8764244914054871,1.2622729539871216,89.26602172851562,-0.12372284382581711,0.0
2190,0.0012617111206054688,1.0071995258331299,-0.015401840209960938,-0.29936838150024414,-0.20254993438720703,0.423001766204834,89.12097930908203,-0.07176555693149567,0.0,0.2483675181865692,-0.8774372339248657,1.2643879652023315,89.26355743408203,-0.12437859177589417,0.0
2195,0.0019941329956054688,1.0106174945831299,-0.021993637084960938,-0.05509376525878906,0.011190414428710938,0.5604066848754883,88.74818420410156,-0.1130281314253807,0.0,0.24809205532073975,-0.8773812651634216,1.2671899795532227,89.25981140136719,-0.12424653023481369,0.0
2200,0.0010175704956054688,1.0081760883331299,-0.010519027709960938,0.005974769592285156,-0.32468748092651367,0.36193323135375977,89.39942169189453,-0.057826507836580276,0.0,0.2481219321489334,-0.879004716873169,1.268999695777893,89.26078033447266,-0.12541155517101288,0.0
2205,-0.0016679763793945312,1.0067112445831299,-0.021017074584960938,0.2655167579650879,-0.12621402740478516,0.13292551040649414,88.80025482177734,0.0949101373553276,0.0,0.24944952130317688,-0.8796358108520508,1.2696642875671387,89.25899505615234,-0.12455428391695023,0.0
2210,0.0012617111206054688,1.0091526508331299,-0.015401840209960938,0.2655167579650879,-0.2788858413696289,0.5451393127441406,89.1226806640625,-0.0716266930103302,0.0,0.25077709555625916,-0.881030261516571,1.2723900079727173,89.25939178466797,-0.12558285892009735,0.0
2215,-0.0006914138793945312,1.0030491352081299,-0.015157699584960938,0.1586465835571289,0.08752632141113281,0.46880340576171875,89.13333129882812,0.03949015587568283,0.0,0.25157031416893005,-0.8805926442146301,1.2747340202331543,89.25933074951172,-0.12403664737939835,0.0
