Time,Acc_low_X,Acc_low_Y,Acc_low_Z,Gyro_low_X,Gyro_low_Y,Gyro_low_Z,Acc_X,Acc_Y,Acc_Z,Gyro_X,Gyro_Y,Gyro_Z,Euler_X,Euler_Y,Euler_Z
1,-0.02364063262939453,-0.004763364791870117,-1.020772933959961,0.03650951385498047,0.0569920539855957,-0.4319601058959961,-0.2672930955886841,1.3266923427581787,0.0,0.16699451208114624,0.2606816589832306,-1.975785493850708,-0.25592243671417236,1.2987817525863647,0.0
6,-0.01973438262939453,-0.003298521041870117,-1.015890121459961,-0.1772313117980957,-0.37048912048339844,-0.01974630355834961,-0.18599946796894073,1.1128650903701782,0.0,0.1659311205148697,0.2584587335586548,-1.9759039878845215,-0.22196228802204132,1.2059273719787598,0.0
11,-0.02437305450439453,-0.003786802291870117,-1.012716293334961,0.18918085098266602,-0.15674829483032227,0.1787271499633789,-0.21418039500713348,1.378662347793579,0.0,0.16687703132629395,0.2576749920845032,-1.9750103950500488,-0.218757763504982,1.2624741792678833,0.0
16,-0.02339649200439453,0.00011944770812988281,-1.020772933959961,0.2960515022277832,-0.03461122512817383,0.27032995223999023,0.006702815182507038,1.3130104541778564,0.0,0.16835728287696838,0.2575019299983978,-1.973658800125122,-0.16164721548557281,1.2748957872390747,0.0
21,-0.02437305450439453,-0.009646177291870117,-1.015401840209961,0.25024986267089844,0.026457786560058594,0.10239124298095703,-0.5441288948059082,1.3749650716781616,0.0,0.16960853338241577,0.2576342225074768,-1.9731467962265015,-0.23675298690795898,1.2949140071868896,0.0
26,-0.02559375762939453,-0.006960630416870117,-1.006612777709961,0.08231067657470703,0.255465030670166,0.04132270812988281,-0.3960604965686798,1.4564323425292969,0.0,0.17002008855342865,0.2589115500450134,-1.97294020652771,-0.2628535032272339,1.3227900266647339,0.0
31,-0.02290821075439453,-0.007448911666870117,-1.024435043334961,0.47925758361816406,0.1638622283935547,0.0107879638671875,-0.4164998233318329,1.280989408493042,0.0,0.17241637408733368,0.25973087549209595,-1.972886323928833,-0.28267672657966614,1.3175405263900757,0.0
36,-0.01753711700439453,-0.006716489791870117,-1.012228012084961,0.31131839752197266,-0.15674829483032227,-0.08081483840942383,-0.3801150918006897,0.9925433397293091,0.0,0.1739729642868042,0.25894713401794434,-1.9732904434204102,-0.29346272349357605,1.2763341665267944,0.0
41,-0.01973438262939453,-0.011843442916870117,-1.011983871459961,0.20444822311401367,-0.43155765533447266,-0.17241811752319336,-0.6703855395317078,1.1170891523361206,0.0,0.17499519884586334,0.25678935647010803,-1.9741525650024414,-0.3343518078327179,1.2567565441131592,0.0
46,-0.02241992950439453,-0.015017271041870117,-1.016134262084961,0.1586465835571289,-0.7674355506896973,-0.3250899314880371,-0.8464967012405396,1.2638278007507324,0.0,0.17578843235969543,0.2529521882534027,-1.9757779836654663,-0.3847801089286804,1.2540086507797241,0.0
51,-0.02681446075439453,-0.010866880416870117,-1.018819808959961,-0.2841014862060547,-0.7216343879699707,0.04132270812988281,-0.6108904480934143,1.5075418949127197,0.0,0.17436791956424713,0.24934402108192444,-1.9755713939666748,-0.40660902857780457,1.2737563848495483,0.0
56,-0.02266407012939453,-0.013796567916870117,-1.018087387084961,0.03650951385498047,-0.2178173065185547,0.0107879638671875,-0.7762014865875244,1.2751576900482178,0.0,0.17455047369003296,0.2482549399137497,-1.9755175113677979,-0.43723011016845703,1.2728747129440308,0.0
61,-0.02534961700439453,-0.012820005416870117,-1.024923324584961,0.021242141723632812,0.3928699493408203,-0.01974630355834961,-0.7164139747619629,1.4167073965072632,0.0,0.1746566891670227,0.25021928548812866,-1.975616216659546,-0.45861124992370605,1.2857537269592285,0.0
66,-0.01997852325439453,-0.013796567916870117,-1.019552230834961,0.5555934906005859,0.10279369354248047,-0.1876850128173828,-0.7751296758651733,1.1224867105484009,0.0,0.17743465304374695,0.25073325634002686,-1.9765546321868896,-0.4786558747291565,1.2745609283447266,0.0
71,-0.02608203887939453,-0.013796567916870117,-1.012960433959961,-0.19249820709228516,-0.019343852996826172,-0.17241811752319336,-0.7800644040107727,1.4748079776763916,0.0,0.17647215723991394,0.2506365478038788,-1.977416753768921,-0.4996725916862488,1.2878367900848389,0.0
76,-0.02290821075439453,-0.015993833541870117,-1.022237777709961,0.03650951385498047,-0.2788858413696289,0.07185697555541992,-0.8961461186408997,1.2836188077926636,0.0,0.17665471136569977,0.24924211204051971,-1.9770574569702148,-0.5243249535560608,1.2862656116485596,0.0
81,-0.02437305450439453,-0.010134458541870117,-1.016378402709961,-0.13142967224121094,-0.3399543762207031,0.2550630569458008,-0.5711215138435364,1.3736381530761719,0.0,0.1759975701570511,0.2475423365831375,-1.9757821559906006,-0.5277025103569031,1.2898175716400146,0.0
86,-0.02510547637939453,-0.009890317916870117,-1.010519027709961,-0.05509376525878906,-0.03461122512817383,-0.23348665237426758,-0.560583770275116,1.4231034517288208,0.0,0.17572210729122162,0.24736927449703217,-1.9769495725631714,-0.5297947525978088,1.2970805168151855,0.0
91,-0.02437305450439453,-0.011111021041870117,-1.011007308959961,0.1281123161315918,0.026457786560058594,-0.2640209197998047,-0.6294752359390259,1.380918264389038,0.0,0.17636266350746155,0.24750156700611115,-1.9782696962356567,-0.5344528555870056,1.3016339540481567,0.0
96,-0.02266407012939453,-0.011599302291870117,-1.015890121459961,0.21971559524536133,0.11806058883666992,-0.05028057098388672,-0.654004693031311,1.2779488563537598,0.0,0.17746123671531677,0.24809187650680542,-1.9785211086273193,-0.5394118428230286,1.301005482673645,0.0
101,-0.02241992950439453,-0.008669614791870117,-1.020772933959961,-0.009292125701904297,0.27073240280151367,0.10239124298095703,-0.4864947199821472,1.258178472518921,0.0,0.17741477489471436,0.24944554269313812,-1.9780091047286987,-0.5369241237640381,1.3002451658248901,0.0
106,-0.01826953887939453,-0.009646177291870117,-1.013692855834961,-0.08562803268432617,0.1943964958190918,0.1787271499633789,-0.5451146364212036,1.0324692726135254,0.0,0.17698663473129272,0.2504175305366516,-1.977115511894226,-0.5377070307731628,1.288934588432312,0.0
111,-0.02315235137939453,-0.007204771041870117,-1.021505355834961,-0.05509376525878906,-0.32468748092651367,-0.14188337326049805,-0.40400195121765137,1.29835045337677,0.0,0.17671117186546326,0.2487940937280655,-1.9778249263763428,-0.5321213603019714,1.2877941131591797,0.0
116,-0.02461719512939453,-0.005495786666870117,-1.022726058959961,0.21971559524536133,-0.5384278297424316,0.04132270812988281,-0.3077961802482605,1.378833293914795,0.0,0.17780974507331848,0.2461019605398178,-1.9776183366775513,-0.5216576457023621,1.289034366607666,0.0
121,-0.02071094512939453,-0.006960630416870117,-1.023458480834961,0.09757804870605469,0.011190414428710938,-0.01974630355834961,-0.3895878195762634,1.1592657566070557,0.0,0.17829763889312744,0.2461579144001007,-1.9777170419692993,-0.5158663392066956,1.2838577032089233,0.0
126,-0.02339649200439453,-0.004030942916870117,-1.010763168334961,0.17391395568847656,-0.2483515739440918,-0.2945551872253418,-0.2284342646598816,1.325998306274414,0.0,0.17916721105575562,0.2449161559343338,-1.9791898727416992,-0.5038825273513794,1.2842984199523926,0.0
131,-0.02388477325439453,-0.005739927291870117,-1.017354965209961,0.3571200370788574,0.07225894927978516,-0.14188337326049805,-0.32317090034484863,1.3448832035064697,0.0,0.18095281720161438,0.24527744948863983,-1.979899287223816,-0.4954091012477875,1.2869107723236084,0.0
136,-0.02071094512939453,-0.007693052291870117,-1.011739730834961,0.23498249053955078,0.07225894927978516,0.0107879638671875,-0.43556520342826843,1.172682762145996,0.0,0.18212772905826569,0.24563874304294586,-1.979845404624939,-0.49211785197257996,1.283138632774353,0.0
141,-0.02339649200439453,-0.009402036666870117,-1.019796371459961,0.31131839752197266,-0.20254993438720703,-0.1266164779663086,-0.5280858874320984,1.3142116069793701,0.0,0.1836843192577362,0.2446260005235672,-1.9804785251617432,-0.4918692708015442,1.283244252204895,0.0
147,-0.02534961700439453,-0.010622739791870117,-1.019552230834961,-0.10089540481567383,-0.29415321350097656,0.0107879638671875,-0.596760094165802,1.4242017269134521,0.0,0.1831798404455185,0.24315524101257324,-1.9804246425628662,-0.495894193649292,1.2865768671035767,0.0
152,-0.02559375762939453,-0.011599302291870117,-1.017599105834961,-0.07036113739013672,-0.09567975997924805,-0.1266164779663086,-0.6528624296188354,1.4406557083129883,0.0,0.1827576756477356,0.24258115887641907,-1.9811843633651733,-0.5014330744743347,1.2910575866699219,0.0
157,-0.02510547637939453,-0.006472349166870117,-1.020040512084961,0.28078413009643555,0.08752632141113281,0.11765861511230469,-0.36343756318092346,1.4098641872406006,0.0,0.18416160345077515,0.24301879107952118,-1.9805960655212402,-0.49570029973983765,1.2952466011047363,0.0
162,-0.02486133575439453,-0.009157896041870117,-1.020284652709961,0.005974769592285156,0.1638622283935547,-0.2945551872253418,-0.5141104459762573,1.3957971334457397,0.0,0.1841914802789688,0.2438381016254425,-1.9820688962936401,-0.4962376654148102,1.2991336584091187,0.0
167,-0.02071094512939453,-0.011843442916870117,-1.013448715209961,0.3723874092102051,-0.18728303909301758,0.056589603424072266,-0.669404149055481,1.1706597805023193,0.0,0.18605341017246246,0.24290168285369873,-1.9817858934402466,-0.49960631132125854,1.2943859100341797,0.0
172,-0.02364063262939453,-0.016970396041870117,-1.021505355834961,-0.024559497833251953,-0.23308420181274414,-0.20295238494873047,-0.9515196681022644,1.3255730867385864,0.0,0.18593060970306396,0.2417362630367279,-1.9828006029129028,-0.5128576159477234,1.2941606044769287,0.0
177,-0.02486133575439453,-0.008425474166870117,-1.012960433959961,0.08231067657470703,0.011190414428710938,-0.17241811752319336,-0.47641313076019287,1.4058934450149536,0.0,0.18634216487407684,0.2417922168970108,-1.983662724494934,-0.5114270448684692,1.2973747253417969,0.0
182,-0.02290821075439453,-0.013796567916870117,-1.018575668334961,0.1281123161315918,-0.2178173065185547,-0.20295238494873047,-0.7758255004882812,1.2882716655731201,0.0,0.18698272109031677,0.24070313572883606,-1.9846774339675903,-0.518086850643158,1.296064853668213,0.0
187,-0.02217578887939453,-0.015505552291870117,-1.008565902709961,-0.039826393127441406,-0.03461122512817383,0.11765861511230469,-0.8805751800537109,1.2594361305236816,0.0,0.1867835819721222,0.2405300736427307,-1.9840891361236572,-0.5280128121376038,1.2949129343032837,0.0
192,-0.02266407012939453,-0.012087583541870117,-1.016134262084961,0.03650951385498047,-0.17201566696166992,-0.01974630355834961,-0.6813693046569824,1.2776347398757935,0.0,0.18696613609790802,0.23966999351978302,-1.9841878414154053,-0.5318511724472046,1.2936228513717651,0.0
197,-0.02241992950439453,-0.008669614791870117,-1.022237777709961,-0.3146357536315918,0.07225894927978516,0.0107879638671875,-0.4857979416847229,1.2563762664794922,0.0,0.18539296090602875,0.24003128707408905,-1.9841339588165283,-0.5322069525718689,1.293022871017456,0.0
202,-0.01949024200439453,-0.010866880416870117,-1.013936996459961,0.18918085098266602,-0.1109471321105957,-0.09608221054077148,-0.6139311790466309,1.1011601686477661,0.0,0.186338871717453,0.2394765466451645,-1.984614372253418,-0.5333250761032104,1.2876917123794556,0.0
207,-0.01997852325439453,-0.010378599166870117,-1.014913558959961,-0.039826393127441406,-0.09567975997924805,-0.1876850128173828,-0.585777997970581,1.1276600360870361,0.0,0.18613973259925842,0.238998144865036,-1.9855527877807617,-0.5347992777824402,1.2833199501037598,0.0
212,-0.01851367950439453,-0.010134458541870117,-1.025167465209961,-0.13142967224121094,-0.2483515739440918,-0.1571507453918457,-0.5662959218025208,1.0345515012741089,0.0,0.18548259139060974,0.2377563863992691,-1.986338496208191,-0.5361923575401306,1.2761715650558472,0.0
217,-0.02437305450439453,-0.009157896041870117,-1.022726058959961,0.03650951385498047,0.1638622283935547,-0.30982255935668945,-0.5128898620605469,1.3651288747787476,0.0,0.18566514551639557,0.23857569694519043,-1.9878876209259033,-0.5354699492454529,1.2790488004684448,0.0
222,-0.02168750762939453,-0.008425474166870117,-1.014913558959961,0.21971559524536133,-0.1109471321105957,-0.24875402450561523,-0.4755309820175171,1.2241148948669434,0.0,0.1867637187242508,0.23802095651626587,-1.9891313314437866,-0.533026397228241,1.277251124382019,0.0
227,-0.02754688262939453,-0.013064146041870117,-1.014425277709961,0.20444822311401367,-0.309420108795166,-0.1571507453918457,-0.7375637292861938,1.555364966392517,0.0,0.18778595328330994,0.23647385835647583,-1.9899170398712158,-0.5366066694259644,1.281965732574463,0.0
232,-0.02412891387939453,-0.006472349166870117,-1.023946762084961,-0.009292125701904297,0.0569920539855957,-0.1266164779663086,-0.3620602786540985,1.3498764038085938,0.0,0.18773949146270752,0.23675881326198578,-1.99055016040802,-0.5328221321105957,1.2837345600128174,0.0
237,-0.02315235137939453,-0.010134458541870117,-1.018087387084961,0.20444822311401367,0.13332796096801758,-0.06554794311523438,-0.5701794028282166,1.302675724029541,0.0,0.18876172602176666,0.23742544651031494,-1.9908778667449951,-0.5326256155967712,1.2847943305969238,0.0
242,-0.02241992950439453,-0.008669614791870117,-1.013936996459961,-0.13142967224121094,0.40813684463500977,-0.34035682678222656,-0.48977288603782654,1.2666577100753784,0.0,0.18810458481311798,0.23946613073349,-1.992579698562622,-0.532364547252655,1.2864091396331787,0.0
247,-0.02559375762939453,-0.009890317916870117,-1.017599105834961,0.09757804870605469,-0.416290283203125,0.33139896392822266,-0.5566794276237488,1.4406813383102417,0.0,0.18859247863292694,0.23738467693328857,-1.9909226894378662,-0.5323903560638428,1.28756582736969,0.0
252,-0.02388477325439453,-0.008181333541870117,-1.014913558959961,0.09757804870605469,-0.40102338790893555,-0.20295238494873047,-0.4617299437522888,1.3480948209762573,0.0,0.1890803724527359,0.23537956178188324,-1.9919373989105225,-0.5304757356643677,1.2868322134017944,0.0
257,-0.02803516387939453,-0.009157896041870117,-1.014669418334961,0.31131839752197266,-0.6605653762817383,-0.1876850128173828,-0.5169116258621216,1.5826066732406616,0.0,0.19063696265220642,0.2320767343044281,-1.9928758144378662,-0.528679370880127,1.2895019054412842,0.0
262,-0.02290821075439453,-0.006716489791870117,-1.021749496459961,0.1586465835571289,0.255465030670166,0.08712387084960938,-0.3765348494052887,1.2843613624572754,0.0,0.1914301961660385,0.23335406184196472,-1.9924402236938477,-0.524916410446167,1.2906533479690552,0.0
267,-0.02632617950439453,-0.005495786666870117,-1.024679183959961,0.05177640914916992,0.20966386795043945,0.08712387084960938,-0.30719712376594543,1.4717050790786743,0.0,0.19168907403945923,0.2344023883342743,-1.992004632949829,-0.5204634666442871,1.2951732873916626,0.0
272,-0.02437305450439453,-0.009157896041870117,-1.019063949584961,0.2960515022277832,-0.309420108795166,-0.34035682678222656,-0.5147318243980408,1.3700324296951294,0.0,0.19316932559013367,0.23285529017448425,-1.993706464767456,-0.5189025402069092,1.2950751781463623,0.0
277,-0.02486133575439453,-0.007204771041870117,-1.015157699584961,0.05177640914916992,0.0569920539855957,0.11765861511230469,-0.4065105617046356,1.402864933013916,0.0,0.19342820346355438,0.2331402450799942,-1.993118166923523,-0.5165519118309021,1.2973655462265015,0.0
282,-0.02754688262939453,-0.009646177291870117,-1.021505355834961,0.021242141723632812,-0.12621402740478516,0.10239124298095703,-0.5408371090888977,1.5446491241455078,0.0,0.19353441894054413,0.23250918090343475,-1.9926061630249023,-0.5168933868408203,1.3012850284576416,0.0
287,-0.02339649200439453,-0.010134458541870117,-1.017110824584961,0.2960515022277832,-0.1109471321105957,-0.14188337326049805,-0.5707234144210815,1.3176709413528442,0.0,0.19501467049121857,0.2319544404745102,-1.993315577507019,-0.5164124369621277,1.3010364770889282,0.0
292,-0.02486133575439453,-0.009157896041870117,-1.016134262084961,0.1281123161315918,-0.17201566696166992,-0.17241811752319336,-0.5162089467048645,1.4014955759048462,0.0,0.1956552267074585,0.2310943603515625,-1.9941776990890503,-0.5157796144485474,1.3019788265228271,0.0
298,-0.02510547637939453,-0.010134458541870117,-1.016866683959961,0.28078413009643555,-0.12621402740478516,0.423001766204834,-0.5708374977111816,1.4142210483551025,0.0,0.19705915451049805,0.23046329617500305,-1.9920626878738403,-0.5153650045394897,1.3033254146575928,0.0
303,-0.02437305450439453,-0.006472349166870117,-1.020528793334961,0.21971559524536133,0.011190414428710938,-0.09608221054077148,-0.363270103931427,1.3680943250656128,0.0,0.19837744534015656,0.23053044080734253,-1.992639183998108,-0.5114410519599915,1.3045107126235962,0.0
308,-0.02290821075439453,-0.009402036666870117,-1.015890121459961,0.21971559524536133,-0.08041238784790039,-0.03501319885253906,-0.5301210284233093,1.2917393445968628,0.0,0.19947601854801178,0.23012837767601013,-1.992814302444458,-0.510679304599762,1.3038979768753052,0.0
313,-0.01997852325439453,-0.007693052291870117,-1.017843246459961,0.06704378128051758,0.011190414428710938,-0.20295238494873047,-0.43296071887016296,1.1244417428970337,0.0,0.19981123507022858,0.23018433153629303,-1.9938290119171143,-0.509044885635376,1.3009400367736816,0.0
318,-0.02266407012939453,-0.005739927291870117,-1.012472152709961,-0.10089540481567383,0.026457786560058594,-0.1266164779663086,-0.324737548828125,1.2823245525360107,0.0,0.19930675625801086,0.230316624045372,-1.9944621324539185,-0.5064898729324341,1.3007619380950928,0.0
323,-0.02144336700439453,-0.009646177291870117,-1.018087387084961,-0.07036113739013672,0.17912960052490234,0.0107879638671875,-0.5427296161651611,1.2065542936325073,0.0,0.19895495474338531,0.23121227324008942,-1.9944082498550415,-0.5074276328086853,1.3001047372817993,0.0
328,-0.02046680450439453,-0.012087583541870117,-1.019796371459961,0.25024986267089844,-0.2788858413696289,-0.1876850128173828,-0.6789548397064209,1.1496626138687134,0.0,0.2002062052488327,0.22981783747673035,-1.9953466653823853,-0.5089596509933472,1.2963093519210815,0.0
333,-0.02632617950439453,-0.011599302291870117,-1.016622543334961,0.14337968826293945,0.026457786560058594,-0.14188337326049805,-0.6534770727157593,1.4832878112792969,0.0,0.2009231001138687,0.22995012998580933,-1.996056079864502,-0.5105514526367188,1.2994118928909302,0.0
338,-0.02071094512939453,-0.013552427291870117,-1.017354965209961,0.34185266494750977,-0.09567975997924805,0.16345977783203125,-0.763047456741333,1.166142225265503,0.0,0.2026323676109314,0.22947172820568085,-1.9952387809753418,-0.5128308534622192,1.2968498468399048,0.0
343,-0.02608203887939453,-0.010866880416870117,-1.021993637084961,-0.039826393127441406,-0.03461122512817383,0.1481928825378418,-0.6090060472488403,1.4618310928344727,0.0,0.20243322849273682,0.2292986661195755,-1.9944977760314941,-0.5145168304443359,1.299235224723816,0.0
348,-0.02071094512939453,-0.010134458541870117,-1.016866683959961,-0.05509376525878906,-0.37048912048339844,-0.37089109420776367,-0.5708929896354675,1.1667476892471313,0.0,0.20215776562690735,0.22744621336460114,-1.996352195739746,-0.5156505703926086,1.2953842878341675,0.0
353,-0.02095508575439453,-0.012820005416870117,-1.017110824584961,-0.10089540481567383,-0.3399543762207031,-0.3250899314880371,-0.7219837307929993,1.1801789999008179,0.0,0.20165328681468964,0.22574643790721893,-1.997977614402771,-0.5192652940750122,1.2919692993164062,0.0
358,-0.02412891387939453,-0.010622739791870117,-1.011007308959961,-0.05509376525878906,-0.2483515739440918,-0.11134910583496094,-0.6018181443214417,1.3670982122421265,0.0,0.20137782394886017,0.22450467944145203,-1.9985343217849731,-0.5207691192626953,1.2918676137924194,0.0
363,-0.02461719512939453,-0.008913755416870117,-1.022237777709961,-0.08562803268432617,-0.2788858413696289,0.056589603424072266,-0.4994528889656067,1.3794591426849365,0.0,0.20094968378543854,0.22311024367809296,-1.9982513189315796,-0.5208764672279358,1.2917859554290771,0.0
368,-0.02217578887939453,-0.013552427291870117,-1.011983871459961,0.03650951385498047,0.07225894927978516,-0.20295238494873047,-0.7670716643333435,1.255219578742981,0.0,0.20113223791122437,0.223471537232399,-1.9992660284042358,-0.5242863893508911,1.2916088104248047,0.0
373,-0.02217578887939453,-0.009157896041870117,-1.012228012084961,-0.07036113739013672,-0.04987812042236328,-0.01974630355834961,-0.5182316899299622,1.254978060722351,0.0,0.20078043639659882,0.22322215139865875,-1.9993647336959839,-0.5245458483695984,1.2908350229263306,0.0
378,-0.02193164825439453,-0.006716489791870117,-1.020284652709961,0.11284542083740234,-0.37048912048339844,-0.23348665237426758,-0.37708309292793274,1.2313917875289917,0.0,0.20134466886520386,0.2213696986436844,-2.0005321502685547,-0.5218878388404846,1.2881617546081543,0.0
383,-0.02193164825439453,-0.010378599166870117,-1.023214340209961,0.03650951385498047,-0.09567975997924805,-0.03501319885253906,-0.581005334854126,1.2278306484222412,0.0,0.20152722299098969,0.2208912968635559,-2.0007071495056152,-0.5225411653518677,1.2868397235870361,0.0
388,-0.02608203887939453,-0.011843442916870117,-1.019552230834961,-0.024559497833251953,-0.37048912048339844,-0.4319601058959961,-0.6653184294700623,1.4653140306472778,0.0,0.2014044225215912,0.21903884410858154,-2.0028669834136963,-0.5246530771255493,1.2875016927719116,0.0
393,-0.02534961700439453,-0.007937192916870117,-1.014913558959961,0.11284542083740234,0.0569920539855957,-0.1876850128173828,-0.4479362666606903,1.4307422637939453,0.0,0.20196865499019623,0.2193237990140915,-2.00380539894104,-0.5230383276939392,1.2897586822509766,0.0
398,-0.02779102325439453,-0.008913755416870117,-1.022481918334961,-0.009292125701904297,0.27073240280151367,0.08712387084960938,-0.4992940127849579,1.5568548440933228,0.0,0.2019221931695938,0.2206774652004242,-2.0033698081970215,-0.5227600336074829,1.294739842414856,0.0
403,-0.02290821075439453,-0.009402036666870117,-1.021749496459961,0.021242141723632812,0.08752632141113281,0.07185697555541992,-0.5270826816558838,1.2843347787857056,0.0,0.20202840864658356,0.2211150974035263,-2.0030105113983154,-0.5227136611938477,1.295030951499939,0.0
408,-0.02144336700439453,-0.007204771041870117,-1.018819808959961,0.25024986267089844,0.2249307632446289,-0.5540971755981445,-0.4050811529159546,1.2057111263275146,0.0,0.20327965915203094,0.22223974764347076,-2.0057809352874756,-0.5199060440063477,1.2949460744857788,0.0
413,-0.02412891387939453,-0.006228208541870117,-1.023214340209961,-0.07036113739013672,-0.3857560157775879,-0.5540971755981445,-0.34865275025367737,1.350844144821167,0.0,0.2029278576374054,0.2203109711408615,-2.0085513591766357,-0.5179858207702637,1.2937828302383423,0.0
418,-0.02144336700439453,-0.004519224166870117,-1.018331527709961,0.18918085098266602,-0.019343852996826172,0.23979568481445312,-0.25421327352523804,1.206307291984558,0.0,0.20387376844882965,0.22021424770355225,-2.007352352142334,-0.5135942101478577,1.2925405502319336,0.0
423,-0.02412891387939453,-0.006960630416870117,-1.010763168334961,0.3265857696533203,-0.09567975997924805,-0.21821928024291992,-0.3944493234157562,1.3674713373184204,0.0,0.20550669729709625,0.21973584592342377,-2.0084433555603027,-0.5104355216026306,1.2930412292480469,0.0
428,-0.02388477325439453,-0.005739927291870117,-1.015645980834961,0.14337968826293945,-0.06514549255371094,0.056589603424072266,-0.32371437549591064,1.3471451997756958,0.0,0.20622359216213226,0.21941012144088745,-2.008160352706909,-0.5073264241218567,1.2934155464172363,0.0
433,-0.02437305450439453,-0.006228208541870117,-1.012228012084961,0.21971559524536133,-0.32468748092651367,-0.05028057098388672,-0.35243260860443115,1.3793107271194458,0.0,0.2073221653699875,0.21778668463230133,-2.0084116458892822,-0.5042684078216553,1.2929072380065918,0.0
438,-0.02461719512939453,-0.007204771041870117,-1.011495590209961,0.28078413009643555,-0.09567975997924805,-0.09608221054077148,-0.40798377990722656,1.3941210508346558,0.0,0.20872609317302704,0.21730828285217285,-2.008892059326172,-0.5016667246818542,1.2937126159667969,0.0
444,-0.02217578887939453,-0.007937192916870117,-1.022970199584961,0.28078413009643555,0.14859485626220703,-0.08081483840942383,-0.4444427788257599,1.2418171167373657,0.0,0.2101300209760666,0.2180512547492981,-2.009296178817749,-0.4995644986629486,1.2937971353530884,0.0
449,-0.02510547637939453,-0.012331724166870117,-1.021505355834961,0.25024986267089844,-0.2178173065185547,-0.34035682678222656,-0.6914385557174683,1.407768964767456,0.0,0.21163152158260345,0.2167443484067917,-2.011338233947754,-0.5004642605781555,1.293921709060669,0.0
454,-0.02632617950439453,-0.009646177291870117,-1.013692855834961,-0.039826393127441406,-0.2483515739440918,0.056589603424072266,-0.5450194478034973,1.4876022338867188,0.0,0.21143238246440887,0.21550258994102478,-2.0110552310943604,-0.5012093782424927,1.2950791120529175,0.0
459,-0.02217578887939453,-0.011599302291870117,-1.017599105834961,0.17391395568847656,-0.03461122512817383,-0.11134910583496094,-0.6529138684272766,1.248326063156128,0.0,0.21230195462703705,0.21532952785491943,-2.0116119384765625,-0.5022015571594238,1.2943376302719116,0.0
464,-0.02437305450439453,-0.012087583541870117,-1.020772933959961,0.14337968826293945,-0.2788858413696289,-0.1266164779663086,-0.6782486438751221,1.3676989078521729,0.0,0.21301884949207306,0.21393509209156036,-2.012244939804077,-0.5036232471466064,1.293847680091858,0.0
469,-0.02095508575439453,-0.012331724166870117,-1.018087387084961,0.021242141723632812,-0.3399543762207031,-0.24875402450561523,-0.6938221454620361,1.1790543794631958,0.0,0.2131250649690628,0.21223531663417816,-2.01348876953125,-0.505800187587738,1.2907910346984863,0.0
474,-0.01924610137939453,-0.006960630416870117,-1.023946762084961,0.38765430450439453,-0.1109471321105957,-0.09608221054077148,-0.3894129991531372,1.0767797231674194,0.0,0.21506333351135254,0.2116805762052536,-2.0139691829681396,-0.5025001168251038,1.2876964807510376,0.0
479,-0.02290821075439453,-0.012575864791870117,-1.019308090209961,-0.039826393127441406,0.026457786560058594,-0.17241811752319336,-0.7066808938980103,1.287366509437561,0.0,0.21486419439315796,0.21181286871433258,-2.014831304550171,-0.5051066875457764,1.2878233194351196,0.0
484,-0.02364063262939453,-0.010378599166870117,-1.025899887084961,0.1586465835571289,-0.09567975997924805,0.16345977783203125,-0.5794637799263,1.3200113773345947,0.0,0.21565742790699005,0.2113344669342041,-2.0140140056610107,-0.505193293094635,1.2877273559570312,0.0
489,-0.02168750762939453,-0.010622739791870117,-1.020528793334961,0.14337968826293945,0.10279369354248047,-0.06554794311523438,-0.5962387323379517,1.2173575162887573,0.0,0.21637432277202606,0.2118484377861023,-2.0143418312072754,-0.5055422782897949,1.2874178886413574,0.0
494,-0.02779102325439453,-0.009646177291870117,-1.014669418334961,-0.1466965675354004,0.011190414428710938,-0.01974630355834961,-0.5444743037223816,1.5688247680664062,0.0,0.2156408429145813,0.2119043916463852,-2.0144405364990234,-0.5067160129547119,1.2907166481018066,0.0
499,-0.02193164825439453,-0.009402036666870117,-1.008565902709961,0.28078413009643555,-0.2178173065185547,-0.30982255935668945,-0.5339800715446472,1.2456680536270142,0.0,0.21704477071762085,0.21081531047821045,-2.0159895420074463,-0.5056399703025818,1.2891247272491455,0.0
504,-0.02388477325439453,-0.007448911666870117,-1.013692855834961,0.20444822311401367,-0.4926261901855469,0.07185697555541992,-0.42090174555778503,1.3497250080108643,0.0,0.21806700527668,0.20835217833518982,-2.0156302452087402,-0.503667414188385,1.2873774766921997,0.0
509,-0.02290821075439453,-0.010378599166870117,-1.030782699584961,0.05177640914916992,0.5150070190429688,0.316131591796875,-0.5767297744750977,1.273072600364685,0.0,0.2183258831501007,0.21092721819877625,-2.014049530029297,-0.5042347311973572,1.289762258529663,0.0
514,-0.02168750762939453,-0.005739927291870117,-1.015401840209961,0.11284542083740234,-0.2788858413696289,-0.34035682678222656,-0.32380789518356323,1.2235490083694458,0.0,0.21889011561870575,0.20953278243541718,-2.015751361846924,-0.50165855884552,1.2876428365707397,0.0
519,-0.02071094512939453,-0.005739927291870117,-1.018575668334961,0.2960515022277832,-0.20254993438720703,0.23979568481445312,-0.32280582189559937,1.164829969406128,0.0,0.2203703671693802,0.2085200399160385,-2.014552354812622,-0.4982084333896637,1.2852773666381836,0.0
524,-0.02510547637939453,-0.008913755416870117,-1.014425277709961,0.14337968826293945,-0.06514549255371094,0.04132270812988281,-0.5032910108566284,1.417638897895813,0.0,0.2210872620344162,0.2081943154335022,-2.014345645904541,-0.4975554943084717,1.2864148616790771,0.0
529,-0.02217578887939453,-0.007204771041870117,-1.018575668334961,-0.07036113739013672,0.026457786560058594,-0.21821928024291992,-0.4051719605922699,1.2471795082092285,0.0,0.22073546051979065,0.20832660794258118,-2.0154366493225098,-0.4968918263912201,1.286116123199463,0.0
534,-0.02241992950439453,-0.008181333541870117,-1.022237777709961,0.14337968826293945,-0.09567975997924805,-0.3250899314880371,-0.458438515663147,1.2563811540603638,0.0,0.22145235538482666,0.2078482061624527,-2.017062187194824,-0.4957645535469055,1.2853195667266846,0.0
539,-0.02266407012939453,-0.006228208541870117,-1.015890121459961,0.005974769592285156,0.04172468185424805,0.11765861511230469,-0.35117658972740173,1.2780081033706665,0.0,0.22148223221302032,0.20805682241916656,-2.0164740085601807,-0.49417322874069214,1.2854470014572144,0.0
544,-0.01924610137939453,-0.009646177291870117,-1.017843246459961,0.41818857192993164,-0.20254993438720703,-0.1266164779663086,-0.5428831577301025,1.0832114219665527,0.0,0.22357317805290222,0.2070440798997879,-2.0171070098876953,-0.4926273822784424,1.2822750806808472,0.0
549,-0.02339649200439453,-0.008181333541870117,-1.009054183959961,0.005974769592285156,-0.12621402740478516,0.056589603424072266,-0.4644147753715515,1.3282102346420288,0.0,0.2236030548810959,0.20641301572322845,-2.0168240070343018,-0.49229711294174194,1.2821403741836548,0.0
554,-0.02095508575439453,-0.008669614791870117,-1.018087387084961,-0.2077655792236328,-0.15674829483032227,-0.30982255935668945,-0.4877922534942627,1.179098129272461,0.0,0.2225642204284668,0.20562927424907684,-2.0183730125427246,-0.4932772219181061,1.280273675918579,0.0
559,-0.02241992950439453,-0.007937192916870117,-1.024190902709961,0.18918085098266602,-0.04987812042236328,-0.20295238494873047,-0.44391101598739624,1.25398850440979,0.0,0.22351013123989105,0.2053798884153366,-2.019387722015381,-0.4918217957019806,1.2797503471374512,0.0
564,-0.02046680450439453,-0.008425474166870117,-1.017843246459961,0.1281123161315918,-0.43155765533447266,-0.2640209197998047,-0.47417470812797546,1.151909589767456,0.0,0.22415068745613098,0.2032220959663391,-2.020707845687866,-0.4910033941268921,1.2762782573699951,0.0
569,-0.02705860137939453,-0.009157896041870117,-1.018819808959961,0.41818857192993164,-0.1109471321105957,-0.1571507453918457,-0.5148208737373352,1.5212863683700562,0.0,0.22624163329601288,0.20266735553741455,-2.021493673324585,-0.4891816973686218,1.278275489807129,0.0
574,-0.02364063262939453,-0.012820005416870117,-1.011739730834961,0.23498249053955078,-0.15674829483032227,-0.004478931427001953,-0.7257721424102783,1.3384404182434082,0.0,0.22741654515266418,0.20188361406326294,-2.0215160846710205,-0.49046263098716736,1.2781213521957397,0.0
579,-0.02217578887939453,-0.012331724166870117,-1.019063949584961,0.05177640914916992,0.13332796096801758,0.22452878952026367,-0.6931400895118713,1.2465219497680664,0.0,0.2276754230260849,0.2025502473115921,-2.0203933715820312,-0.4922872483730316,1.278456687927246,0.0
584,-0.02266407012939453,-0.013064146041870117,-1.017354965209961,0.03650951385498047,-0.15674829483032227,0.026055335998535156,-0.7355285882949829,1.2760874032974243,0.0,0.22785797715187073,0.2017665058374405,-2.020263195037842,-0.49458909034729004,1.2776567935943604,0.0
589,-0.02461719512939453,-0.010134458541870117,-1.016378402709961,0.09757804870605469,0.08752632141113281,0.316131591796875,-0.5711182355880737,1.387392282485962,0.0,0.2283458709716797,0.2022041380405426,-2.0186824798583984,-0.49488264322280884,1.2792034149169922,0.0
595,-0.02412891387939453,-0.008425474166870117,-1.019308090209961,0.18918085098266602,-0.26361894607543945,0.19399404525756836,-0.47345638275146484,1.3559978008270264,0.0,0.22948095202445984,0.20062242448329926,-2.0175185203552246,-0.49354246258735657,1.2784138917922974,0.0
600,-0.02315235137939453,-0.010378599166870117,-1.014669418334961,-0.024559497833251953,0.2249307632446289,0.04132270812988281,-0.585879921913147,1.3070586919784546,0.0,0.22935815155506134,0.2017470747232437,-2.0173118114471436,-0.49459198117256165,1.2798150777816772,0.0
605,-0.02290821075439453,-0.011599302291870117,-1.013692855834961,0.005974769592285156,-0.019343852996826172,-0.05028057098388672,-0.6554179191589355,1.2945090532302856,0.0,0.229388028383255,0.20165035128593445,-2.0175631046295166,-0.4961695969104767,1.2798662185668945,0.0
610,-0.02461719512939453,-0.009890317916870117,-1.012960433959961,0.17391395568847656,0.13332796096801758,-0.11134910583496094,-0.5592402219772339,1.392074704170227,0.0,0.23025760054588318,0.2023169845342636,-2.0181198120117188,-0.49593546986579895,1.2816413640975952,0.0
615,-0.01973438262939453,-0.011599302291870117,-1.006368637084961,0.06704378128051758,-0.416290283203125,0.13292551040649414,-0.6602291464805603,1.12332284450531,0.0,0.23059281706809998,0.2002355307340622,-2.0174551010131836,-0.49722740054130554,1.2780157327651978,0.0
620,-0.02412891387939453,-0.011111021041870117,-1.017110824584961,0.2655167579650879,0.04172468185424805,-0.24875402450561523,-0.6257039308547974,1.358891487121582,0.0,0.23192040622234344,0.20044414699077606,-2.0186989307403564,-0.4971758723258972,1.2790173292160034,0.0
625,-0.02266407012939453,-0.009890317916870117,-1.024679183959961,0.005974769592285156,-0.4926261901855469,-0.1571507453918457,-0.552872896194458,1.267014503479004,0.0,0.2319502830505371,0.19798101484775543,-2.019484758377075,-0.49769094586372375,1.276460886001587,0.0
630,-0.02583789825439453,-0.007204771041870117,-1.015890121459961,-0.2535672187805176,-0.5078935623168945,-0.11134910583496094,-0.4062079191207886,1.4568959474563599,0.0,0.23068244755268097,0.19544154405593872,-2.0200414657592773,-0.498056560754776,1.2757012844085693,0.0
635,-0.02168750762939453,-0.007693052291870117,-1.019308090209961,0.14337968826293945,-0.4468250274658203,0.04132270812988281,-0.43232399225234985,1.2188462018966675,0.0,0.23139934241771698,0.19320741295814514,-2.0198347568511963,-0.49671047925949097,1.27293860912323,0.0
640,-0.02290821075439453,-0.009402036666870117,-1.012716293334961,0.021242141723632812,-0.019343852996826172,-0.004478931427001953,-0.5317814946174622,1.295785903930664,0.0,0.23150555789470673,0.19311068952083588,-2.019857168197632,-0.4969429671764374,1.273062825202942,0.0
645,-0.02461719512939453,-0.010134458541870117,-1.014913558959961,0.03650951385498047,-0.7827029228210449,-0.06554794311523438,-0.5719419717788696,1.3893938064575195,0.0,0.23168811202049255,0.18919716775417328,-2.0201849937438965,-0.4974806606769562,1.2703012228012085,0.0
650,-0.02193164825439453,-0.007937192916870117,-1.021505355834961,-0.009292125701904297,0.14859485626220703,-0.09608221054077148,-0.44508206844329834,1.2299102544784546,0.0,0.23164165019989014,0.18994013965129852,-2.020665407180786,-0.497027188539505,1.270652174949646,0.0
655,-0.02534961700439453,-0.006228208541870117,-1.014181137084961,-0.009292125701904297,-0.019343852996826172,-0.06554794311523438,-0.35174599289894104,1.43179190158844,0.0,0.23159518837928772,0.18984341621398926,-2.020993232727051,-0.4956950545310974,1.2720850706100464,0.0
660,-0.02461719512939453,-0.007693052291870117,-1.020528793334961,0.17391395568847656,0.011190414428710938,-0.05028057098388672,-0.43177899718284607,1.3817815780639648,0.0,0.2324647605419159,0.18989937007427216,-2.021244525909424,-0.4942302703857422,1.2731760740280151,0.0
665,-0.02315235137939453,-0.004275083541870117,-1.021505355834961,-0.07036113739013672,-0.18728303909301758,0.04132270812988281,-0.2397245615720749,1.298371434211731,0.0,0.23211295902729034,0.18896295130252838,-2.0210378170013428,-0.4921874701976776,1.2724852561950684,0.0
670,-0.02437305450439453,-0.012087583541870117,-1.019552230834961,0.21971559524536133,-0.12621402740478516,-0.24875402450561523,-0.679060161113739,1.3693355321884155,0.0,0.23321153223514557,0.18833188712596893,-2.0222816467285156,-0.492846816778183,1.272765874862671,0.0
675,-0.02217578887939453,-0.007693052291870117,-1.013204574584961,0.3265857696533203,-0.309420108795166,-0.34035682678222656,-0.434922456741333,1.253783941268921,0.0,0.23484446108341217,0.1867847889661789,-2.0239834785461426,-0.49068987369537354,1.2710565328598022,0.0
680,-0.02534961700439453,-0.006960630416870117,-1.017354965209961,0.11284542083740234,-0.04987812042236328,-0.2640209197998047,-0.39188364148139954,1.4273204803466797,0.0,0.2354086935520172,0.18653540313243866,-2.025303602218628,-0.48921525478363037,1.2722575664520264,0.0
685,-0.02559375762939453,-0.009157896041870117,-1.016622543334961,0.31131839752197266,0.20966386795043945,-0.03501319885253906,-0.5159519910812378,1.442074179649353,0.0,0.23696528375148773,0.18758372962474823,-2.0254786014556885,-0.4879196584224701,1.2748628854751587,0.0
690,-0.02315235137939453,-0.005984067916870117,-1.017599105834961,0.28078413009643555,-0.5384278297424316,-0.06554794311523438,-0.33684107661247253,1.303342580795288,0.0,0.23836921155452728,0.18489159643650055,-2.025806427001953,-0.48514100909233093,1.2724571228027344,0.0
695,-0.02095508575439453,-0.008425474166870117,-1.011495590209961,0.4334559440612793,-0.1109471321105957,0.27032995223999023,-0.477144330739975,1.186781883239746,0.0,0.24053649604320526,0.184336856007576,-2.0244548320770264,-0.48292040824890137,1.271124005317688,0.0
700,-0.02437305450439453,-0.012575864791870117,-1.017843246459961,0.05177640914916992,-0.18728303909301758,0.13292551040649414,-0.7076736688613892,1.371625542640686,0.0,0.24079537391662598,0.18340043723583221,-2.023790121078491,-0.48471036553382874,1.271111249923706,0.0
705,-0.02486133575439453,-0.010134458541870117,-1.025411605834961,-0.024559497833251953,0.10279369354248047,-0.5693645477294922,-0.5660870671272278,1.3888092041015625,0.0,0.24067257344722748,0.1839144080877304,-2.026636838912964,-0.48556989431381226,1.2726876735687256,0.0
710,-0.02461719512939453,-0.010866880416870117,-1.020772933959961,-0.024559497833251953,-0.09567975997924805,-0.11134910583496094,-0.6097555160522461,1.381412148475647,0.0,0.24054977297782898,0.18343600630760193,-2.027193546295166,-0.48681285977363586,1.2731952667236328,0.0
715,-0.01900196075439453,-0.012087583541870117,-1.015645980834961,-0.22303247451782227,-0.08041238784790039,-0.20295238494873047,-0.6817470788955688,1.0717593431472778,0.0,0.239434614777565,0.18303394317626953,-2.0282082557678223,-0.48967087268829346,1.27098548412323,0.0
720,-0.02022266387939453,-0.009402036666870117,-1.006612777709961,0.1586465835571289,-0.20254993438720703,-0.01974630355834961,-0.5350345969200134,1.150856614112854,0.0,0.2402278482913971,0.18202120065689087,-2.0283069610595703,-0.4892910122871399,1.2689058780670166,0.0
725,-0.02071094512939453,-0.011355161666870117,-1.016134262084961,0.09757804870605469,0.1638622283935547,0.08712387084960938,-0.6401129364967346,1.1675734519958496,0.0,0.24071574211120605,0.1828405112028122,-2.0278713703155518,-0.4901527464389801,1.2688140869140625,0.0
730,-0.02046680450439453,-0.009157896041870117,-1.016378402709961,0.3723874092102051,-0.17201566696166992,0.07185697555541992,-0.5161347985267639,1.1535619497299194,0.0,0.2425776720046997,0.1819804310798645,-2.0275120735168457,-0.4885382056236267,1.2669377326965332,0.0
735,-0.02217578887939453,-0.013552427291870117,-1.011007308959961,0.1586465835571289,-0.5231609344482422,-0.01974630355834961,-0.7678121328353882,1.2564313411712646,0.0,0.2433709055185318,0.1793646216392517,-2.0276107788085938,-0.49022355675697327,1.2642520666122437,0.0
741,-0.02193164825439453,-0.009402036666870117,-1.011739730834961,-0.10089540481567383,-0.26361894607543945,-0.20295238494873047,-0.532305896282196,1.2417619228363037,0.0,0.2428664267063141,0.17804652452468872,-2.02862548828125,-0.49109455943107605,1.2627472877502441,0.0
746,-0.02315235137939453,-0.011599302291870117,-1.011007308959961,0.5250587463378906,0.08752632141113281,0.23979568481445312,-0.6571542620658875,1.3117738962173462,0.0,0.24601678550243378,0.1785716861486435,-2.027186632156372,-0.48943355679512024,1.2636992931365967,0.0
751,-0.02266407012939453,-0.009890317916870117,-1.018087387084961,0.1586465835571289,0.011190414428710938,0.07185697555541992,-0.5564505457878113,1.2752145528793335,0.0,0.24681001901626587,0.1786276400089264,-2.026827335357666,-0.48923495411872864,1.2638556957244873,0.0
756,-0.02461719512939453,-0.009890317916870117,-1.023214340209961,0.21971559524536133,0.07225894927978516,0.10239124298095703,-0.5536395311355591,1.3781311511993408,0.0,0.2479085922241211,0.17898893356323242,-2.026315450668335,-0.48870861530303955,1.2652121782302856,0.0
761,-0.02632617950439453,-0.010134458541870117,-1.020284652709961,-0.08562803268432617,-0.6758322715759277,-0.1571507453918457,-0.5689092874526978,1.4779895544052124,0.0,0.24748045206069946,0.1756097674369812,-2.0271012783050537,-0.4898311197757721,1.2637145519256592,0.0
766,-0.02437305450439453,-0.011355161666870117,-1.020284652709961,-0.08562803268432617,-0.1109471321105957,-0.08081483840942383,-0.6374598145484924,1.3683643341064453,0.0,0.24705231189727783,0.17505502700805664,-2.027505397796631,-0.49153590202331543,1.264072299003601,0.0
771,-0.02559375762939453,-0.008913755416870117,-1.015890121459961,0.08231067657470703,-0.1414813995361328,-0.14188337326049805,-0.5025597214698792,1.4431164264678955,0.0,0.2474638670682907,0.1743476241827011,-2.028214931488037,-0.49122318625450134,1.264918327331543,0.0
776,-0.02388477325439453,-0.010378599166870117,-1.015890121459961,0.28078413009643555,0.3012666702270508,-0.05028057098388672,-0.5851666331291199,1.3467729091644287,0.0,0.24886779487133026,0.17585395276546478,-2.02846622467041,-0.4906403422355652,1.2671165466308594,0.0
781,-0.02412891387939453,-0.012820005416870117,-1.016866683959961,0.4029216766357422,0.011190414428710938,-0.1266164779663086,-0.7221070528030396,1.3591907024383545,0.0,0.25088241696357727,0.17590990662574768,-2.029099225997925,-0.4906293749809265,1.267962098121643,0.0
786,-0.02241992950439453,-0.002566099166870117,-1.014669418334961,-0.009292125701904297,0.2249307632446289,0.056589603424072266,-0.14486536383628845,1.2657859325408936,0.0,0.25083595514297485,0.17703455686569214,-2.0288162231445312,-0.4877183437347412,1.2690584659576416,0.0
791,-0.02193164825439453,-0.009646177291870117,-1.014425277709961,-0.039826393127441406,-0.2788858413696289,-0.14188337326049805,-0.5446822643280029,1.2384730577468872,0.0,0.2506368160247803,0.17564012110233307,-2.0295257568359375,-0.4884013235569,1.2674152851104736,0.0
796,-0.02144336700439453,-0.009157896041870117,-1.009786605834961,0.28078413009643555,-0.4468250274658203,-0.38615846633911133,-0.5194920897483826,1.216474175453186,0.0,0.2520407438278198,0.1734059900045395,-2.031456470489502,-0.4872734546661377,1.2647674083709717,0.0
801,-0.02681446075439453,-0.007937192916870117,-1.021749496459961,-0.13142967224121094,-0.09567975997924805,0.27032995223999023,-0.44492509961128235,1.5032613277435303,0.0,0.25138360261917114,0.172927588224411,-2.030104875564575,-0.4875664710998535,1.2663124799728394,0.0
806,-0.02559375762939453,-0.008913755416870117,-1.012960433959961,0.2960515022277832,-0.1414813995361328,-0.1571507453918457,-0.5040122270584106,1.447288155555725,0.0,0.2528638541698456,0.17222018539905548,-2.030890703201294,-0.4862375259399414,1.2671384811401367,0.0
811,-0.02290821075439453,-0.008181333541870117,-1.020772933959961,0.28078413009643555,0.10279369354248047,-0.08081483840942383,-0.4590911865234375,1.2855762243270874,0.0,0.25426778197288513,0.17273415625095367,-2.031294822692871,-0.4846170246601105,1.2678031921386719,0.0
816,-0.02730274200439453,-0.009890317916870117,-1.012960433959961,0.06704378128051758,0.07225894927978516,-0.03501319885253906,-0.559202253818512,1.5438694953918457,0.0,0.25460299849510193,0.1730954498052597,-2.0314698219299316,-0.48491013050079346,1.2704766988754272,0.0
821,-0.02217578887939453,-0.008913755416870117,-1.020040512084961,0.31131839752197266,0.04172468185424805,0.07185697555541992,-0.5005555152893066,1.2453726530075073,0.0,0.25615960359573364,0.17330406606197357,-2.0311105251312256,-0.48349735140800476,1.2704737186431885,0.0
826,-0.02193164825439453,-0.011843442916870117,-1.020772933959961,0.20444822311401367,0.11806058883666992,-0.03501319885253906,-0.6645869016647339,1.230746865272522,0.0,0.257181853055954,0.17389437556266785,-2.031285524368286,-0.48399296402931213,1.2707279920578003,0.0
831,-0.02510547637939453,-0.008913755416870117,-1.018087387084961,-0.08562803268432617,0.04172468185424805,-0.3556241989135742,-0.501481831073761,1.4125421047210693,0.0,0.25675371289253235,0.1741029918193817,-2.0330636501312256,-0.48456287384033203,1.27211332321167,0.0
836,-0.02559375762939453,-0.006472349166870117,-1.024190902709961,0.18918085098266602,-0.019343852996826172,-0.2945551872253418,-0.3619614541530609,1.4314517974853516,0.0,0.2576996088027954,0.17400626838207245,-2.034536361694336,-0.4826090931892395,1.2733376026153564,0.0
841,-0.02534961700439453,-0.008425474166870117,-1.016622543334961,0.38765430450439453,-0.46209192276000977,-0.30982255935668945,-0.4746924638748169,1.428332805633545,0.0,0.25963789224624634,0.17169581353664398,-2.036085367202759,-0.48062142729759216,1.2723264694213867,0.0
846,-0.02290821075439453,-0.010866880416870117,-1.014181137084961,0.08231067657470703,0.14859485626220703,-0.1571507453918457,-0.6137402653694153,1.2938964366912842,0.0,0.260049432516098,0.17243878543376923,-2.0368711948394775,-0.481309711933136,1.2732410430908203,0.0
851,-0.02583789825439453,-0.009157896041870117,-1.020040512084961,0.21971559524536133,-0.15674829483032227,-0.004478931427001953,-0.51422119140625,1.4509485960006714,0.0,0.26114800572395325,0.17165504395961761,-2.036893606185913,-0.48049047589302063,1.2739232778549194,0.0
856,-0.02510547637939453,-0.011599302291870117,-1.016866683959961,0.34185266494750977,-0.4468250274658203,-0.01974630355834961,-0.6533401012420654,1.4141993522644043,0.0,0.26285725831985474,0.16942091286182404,-2.036992311477661,-0.4802108108997345,1.27285635471344,0.0
861,-0.02705860137939453,-0.012087583541870117,-1.014181137084961,-0.07036113739013672,-0.03461122512817383,-0.1571507453918457,-0.6826082468032837,1.5281944274902344,0.0,0.262505441904068,0.1692478507757187,-2.03777813911438,-0.48221272230148315,1.2747700214385986,0.0
866,-0.02241992950439453,-0.008181333541870117,-1.022237777709961,-0.10089540481567383,-0.40102338790893555,-0.3250899314880371,-0.458438515663147,1.2563811540603638,0.0,0.2620009779930115,0.16724273562431335,-2.0394036769866943,-0.4825194478034973,1.2726315259933472,0.0
871,-0.02266407012939453,-0.007693052291870117,-1.019308090209961,0.005974769592285156,-0.2483515739440918,-0.05028057098388672,-0.4323149621486664,1.2737116813659668,0.0,0.26203083992004395,0.16600097715854645,-2.0396549701690674,-0.4820820391178131,1.2714085578918457,0.0
876,-0.01753711700439453,-0.012331724166870117,-1.020040512084961,0.06704378128051758,-0.18728303909301758,-0.27928829193115234,-0.6925381422042847,0.9848926663398743,0.0,0.26236605644226074,0.16506455838680267,-2.0410513877868652,-0.4834544062614441,1.2681587934494019,0.0
881,-0.02339649200439453,-0.011599302291870117,-1.011495590209961,0.2655167579650879,-0.03461122512817383,-0.004478931427001953,-0.6568335294723511,1.3249619007110596,0.0,0.263693630695343,0.16489149630069733,-2.041073799133301,-0.48353835940361023,1.2684460878372192,0.0
887,-0.02730274200439453,-0.006960630416870117,-1.014669418334961,0.3571200370788574,0.026457786560058594,0.026055335998535156,-0.39290058612823486,1.5413076877593994,0.0,0.2654792368412018,0.1650237888097763,-2.0409436225891113,-0.4810367524623871,1.2707761526107788,0.0
892,-0.02071094512939453,-0.003298521041870117,-1.013448715209961,-0.11616230010986328,-0.2178173065185547,-0.17241811752319336,-0.18644379079341888,1.1707334518432617,0.0,0.26478224992752075,0.1637168824672699,-2.041978120803833,-0.479354590177536,1.2686737775802612,0.0
897,-0.02241992950439453,-0.007937192916870117,-1.018087387084961,0.14337968826293945,-0.09567975997924805,0.0107879638671875,-0.44657090306282043,1.2615034580230713,0.0,0.26549914479255676,0.16323848068714142,-2.041924238204956,-0.4783799946308136,1.2681416273117065,0.0
902,-0.02168750762939453,-0.009890317916870117,-1.019063949584961,0.4945244789123535,-0.26361894607543945,-0.3250899314880371,-0.5559291839599609,1.2191154956817627,0.0,0.2679717540740967,0.16192038357257843,-2.0435497760772705,-0.47654885053634644,1.2664411067962646,0.0
907,-0.02144336700439453,-0.008913755416870117,-1.010519027709961,-0.039826393127441406,-0.2483515739440918,0.2855973243713379,-0.5052773356437683,1.2155953645706177,0.0,0.2677726149559021,0.16067862510681152,-2.0421218872070312,-0.47697609663009644,1.2648026943206787,0.0
912,-0.02217578887939453,-0.012087583541870117,-1.014669418334961,-0.11616230010986328,-0.12621402740478516,0.11765861511230469,-0.6823596358299255,1.2519217729568481,0.0,0.2671917974948883,0.16004756093025208,-2.0415337085723877,-0.479190468788147,1.2640738487243652,0.0
917,-0.02364063262939453,-0.005251646041870117,-1.019308090209961,-0.16196393966674805,-0.08041238784790039,-0.03501319885253906,-0.29511547088623047,1.3285950422286987,0.0,0.26638197898864746,0.15964549779891968,-2.0417087078094482,-0.4785291850566864,1.264188289642334,0.0
922,-0.02461719512939453,-0.010134458541870117,-1.018087387084961,0.20444822311401367,-0.17201566696166992,-0.01974630355834961,-0.5701601505279541,1.3850646018981934,0.0,0.2674042284488678,0.15878541767597198,-2.0418074131011963,-0.4782423973083496,1.2642945051193237,0.0
927,-0.02364063262939453,-0.010622739791870117,-1.017843246459961,0.34185266494750977,0.11806058883666992,-0.11134910583496094,-0.5977855324745178,1.3304517269134521,0.0,0.2691134810447693,0.15937572717666626,-2.0423641204833984,-0.4774933457374573,1.2654041051864624,0.0
932,-0.02559375762939453,-0.007693052291870117,-1.012716293334961,0.1281123161315918,-0.18728303909301758,-0.01974630355834961,-0.43509742617607117,1.4476511478424072,0.0,0.2697540521621704,0.15843930840492249,-2.0424628257751465,-0.47652289271354675,1.2659149169921875,0.0
937,-0.02461719512939453,-0.006716489791870117,-1.023214340209961,0.1281123161315918,-0.309420108795166,-0.08081483840942383,-0.37598150968551636,1.3781657218933105,0.0,0.27039462327957153,0.15689221024513245,-2.0428669452667236,-0.47509485483169556,1.265264868736267,0.0
942,-0.02364063262939453,-0.005984067916870117,-1.015645980834961,0.18918085098266602,-0.20254993438720703,-0.23348665237426758,-0.337484747171402,1.3333784341812134,0.0,0.2713405191898346,0.15587946772575378,-2.044034481048584,-0.47307416796684265,1.2647956609725952,0.0
947,-0.02290821075439453,-0.008181333541870117,-1.015401840209961,0.4639902114868164,0.10279369354248047,-0.1266164779663086,-0.461518257856369,1.2923736572265625,0.0,0.27366048097610474,0.15639343857765198,-2.0446674823760986,-0.47068172693252563,1.2655218839645386,0.0
952,-0.02339649200439453,-0.008669614791870117,-1.009786605834961,-0.10089540481567383,0.0569920539855957,0.026055335998535156,-0.4917740523815155,1.3272418975830078,0.0,0.2731560170650482,0.15667839348316193,-2.044537305831909,-0.4713473916053772,1.2662878036499023,0.0
957,-0.02608203887939453,-0.002566099166870117,-1.019063949584961,0.05177640914916992,0.04172468185424805,-0.01974630355834961,-0.14422863721847534,1.4661099910736084,0.0,0.2734149098396301,0.1568870097398758,-2.0446360111236572,-0.468534916639328,1.2680559158325195,0.0
962,-0.02461719512939453,-0.010134458541870117,-1.015157699584961,0.38765430450439453,-0.004076957702636719,-0.11134910583496094,-0.5718045234680176,1.3890597820281982,0.0,0.27535319328308105,0.1568666249513626,-2.0451927185058594,-0.46741679310798645,1.2689789533615112,0.0
967,-0.02412891387939453,-0.009157896041870117,-1.025411605834961,0.14337968826293945,0.1638622283935547,0.16345977783203125,-0.5115503072738647,1.3479218482971191,0.0,0.27607008814811707,0.15768593549728394,-2.044375419616699,-0.4670487940311432,1.2704060077667236,0.0
972,-0.02510547637939453,-0.010622739791870117,-1.013448715209961,-0.29936838150024414,-0.04987812042236328,-0.14188337326049805,-0.6003552079200745,1.4189813137054443,0.0,0.2745732367038727,0.1574365496635437,-2.0450849533081055,-0.4695688486099243,1.27131187915802,0.0
977,-0.02193164825439453,-0.009157896041870117,-1.015890121459961,0.08231067657470703,-0.04987812042236328,-0.01974630355834961,-0.5163671970367432,1.2366935014724731,0.0,0.27498477697372437,0.15718716382980347,-2.0451836585998535,-0.46952304244041443,1.270796298980713,0.0
982,-0.02217578887939453,-0.009157896041870117,-1.015890121459961,0.23498249053955078,0.14859485626220703,-0.21821928024291992,-0.5163645148277283,1.2504558563232422,0.0,0.27615970373153687,0.1579301357269287,-2.0462746620178223,-0.46871933341026306,1.271376371383667,0.0
987,-0.02364063262939453,-0.010134458541870117,-1.017599105834961,-0.1772313117980957,-0.15674829483032227,0.056589603424072266,-0.5704465508460999,1.3307772874832153,0.0,0.27527356147766113,0.1571463942527771,-2.0459916591644287,-0.47038352489471436,1.2710570096969604,0.0
992,-0.02119922637939453,-0.012820005416870117,-1.016622543334961,-0.024559497833251953,-0.309420108795166,0.1481928825378418,-0.7223267555236816,1.194498062133789,0.0,0.27515077590942383,0.15559929609298706,-2.045250654220581,-0.47244536876678467,1.2689323425292969,0.0
997,-0.02315235137939453,-0.010622739791870117,-1.020284652709961,0.03650951385498047,-0.26361894607543945,-0.06554794311523438,-0.5963625311851501,1.2998652458190918,0.0,0.27533331513404846,0.15428119897842407,-2.0455784797668457,-0.47321653366088867,1.26786208152771,0.0
1002,-0.02632617950439453,-0.009890317916870117,-1.018575668334961,0.03650951385498047,-0.29415321350097656,-0.1876850128173828,-0.556135892868042,1.4804714918136597,0.0,0.2755158543586731,0.15281043946743011,-2.0465168952941895,-0.47367140650749207,1.2680332660675049,0.0
1007,-0.02168750762939453,-0.005251646041870117,-1.021017074584961,0.18918085098266602,-0.3399543762207031,-0.14188337326049805,-0.29463428258895874,1.216825246810913,0.0,0.27646175026893616,0.1511106640100479,-2.0472264289855957,-0.4713621139526367,1.2659544944763184,0.0
1012,-0.02388477325439453,-0.010134458541870117,-1.013204574584961,0.1586465835571289,-0.5384278297424316,-0.01974630355834961,-0.5729159712791443,1.350344181060791,0.0,0.27725496888160706,0.14841853082180023,-2.0473251342773438,-0.47135093808174133,1.2639278173446655,0.0
1017,-0.02119922637939453,-0.004030942916870117,-1.016622543334961,0.1281123161315918,-0.03461122512817383,-0.05028057098388672,-0.22712914645671844,1.1945836544036865,0.0,0.2778955399990082,0.14824546873569489,-2.047576427459717,-0.46885254979133606,1.263227105140686,0.0
1022,-0.02315235137939453,-0.009402036666870117,-1.015645980834961,-0.11616230010986328,-0.15674829483032227,-0.03501319885253906,-0.5302455425262451,1.3058147430419922,0.0,0.2773147225379944,0.14746172726154327,-2.0477514266967773,-0.4698963463306427,1.2627736330032349,0.0
1027,-0.02266407012939453,-0.010866880416870117,-1.016866683959961,0.21971559524536133,0.04172468185424805,-0.1266164779663086,-0.6121236085891724,1.2767322063446045,0.0,0.2784132957458496,0.14767034351825714,-2.048384428024292,-0.4698869585990906,1.2630867958068848,0.0
1032,-0.02437305450439453,-0.006716489791870117,-1.013204574584961,0.09757804870605469,-0.1109471321105957,0.08712387084960938,-0.379695862531662,1.3779776096343994,0.0,0.27890118956565857,0.14711560308933258,-2.0479488372802734,-0.46871858835220337,1.263407826423645,0.0
1038,-0.02168750762939453,-0.009402036666870117,-1.024435043334961,0.20444822311401367,-0.03461122512817383,-0.1266164779663086,-0.5257153511047363,1.2127315998077393,0.0,0.2799234390258789,0.14694254100322723,-2.048581838607788,-0.46813568472862244,1.2628523111343384,0.0
1043,-0.02339649200439453,-0.008669614791870117,-1.012228012084961,0.09757804870605469,0.04172468185424805,-0.17241811752319336,-0.49058863520622253,1.3240420818328857,0.0,0.2805089056491852,0.14719289541244507,-2.0496163368225098,-0.46772482991218567,1.2635644674301147,0.0
1048,-0.02193164825439453,-0.005984067916870117,-1.017843246459961,0.09757804870605469,0.10279369354248047,-0.09608221054077148,-0.3367692530155182,1.2343499660491943,0.0,0.28099679946899414,0.14770686626434326,-2.0500967502593994,-0.46624991297721863,1.2638534307479858,0.0
1053,-0.02510547637939453,-0.009157896041870117,-1.017354965209961,0.2655167579650879,-0.004076957702636719,-0.21821928024291992,-0.5155869722366333,1.4135555028915405,0.0,0.2823243737220764,0.14768648147583008,-2.051187753677368,-0.465304970741272,1.2649637460708618,0.0
1058,-0.02412891387939453,-0.006228208541870117,-1.022237777709961,0.09757804870605469,-0.1414813995361328,0.10239124298095703,-0.34898561239242554,1.352134108543396,0.0,0.2828122675418854,0.14697907865047455,-2.050675868988037,-0.4639437794685364,1.2649189233779907,0.0
1063,-0.02657032012939453,-0.011111021041870117,-1.018087387084961,0.1281123161315918,-0.17201566696166992,0.19399404525756836,-0.6250668168067932,1.4948923587799072,0.0,0.2834528386592865,0.14611899852752686,-2.049705982208252,-0.46452078223228455,1.2657963037490845,0.0
1068,-0.02412891387939453,-0.006960630416870117,-1.018087387084961,0.08231067657470703,-0.2178173065185547,-0.3250899314880371,-0.39161330461502075,1.3576377630233765,0.0,0.2838643789291382,0.1450299173593521,-2.0513315200805664,-0.4635644853115082,1.265405535697937,0.0
1073,-0.02290821075439453,-0.008425474166870117,-1.016134262084961,0.1586465835571289,-0.23308420181274414,0.16345977783203125,-0.4749474823474884,1.2914400100708008,0.0,0.2846575975418091,0.1438644975423813,-2.0505142211914062,-0.46286261081695557,1.2644442319869995,0.0
1078,-0.02388477325439453,-0.008669614791870117,-1.013692855834961,0.08231067657470703,0.026457786560058594,0.04132270812988281,-0.48987463116645813,1.3497121334075928,0.0,0.28506913781166077,0.14399679005146027,-2.050307512283325,-0.4626564681529999,1.265214204788208,0.0
1083,-0.02144336700439453,-0.013064146041870117,-1.018575668334961,0.08231067657470703,0.4692058563232422,-0.5388302803039551,-0.7346667051315308,1.2059309482574463,0.0,0.28548067808151245,0.14634281396865845,-2.053001642227173,-0.46428215503692627,1.267099380493164,0.0
1088,-0.02437305450439453,-0.013064146041870117,-1.016866683959961,0.31131839752197266,-0.37048912048339844,0.08712387084960938,-0.7358529567718506,1.3729338645935059,0.0,0.28703728318214417,0.14449036121368408,-2.0525660514831543,-0.4647648334503174,1.2660510540008545,0.0
1093,-0.02486133575439453,-0.011843442916870117,-1.011251449584961,-0.07036113739013672,-0.37048912048339844,-0.004478931427001953,-0.6707959175109863,1.4082205295562744,0.0,0.2866854667663574,0.14263790845870972,-2.05258846282959,-0.46664997935295105,1.2652723789215088,0.0
1098,-0.02412891387939453,-0.010866880416870117,-1.015645980834961,0.11284542083740234,-0.03461122512817383,-0.06554794311523438,-0.6128385663032532,1.360853910446167,0.0,0.28724968433380127,0.14246484637260437,-2.0529162883758545,-0.4671781063079834,1.2658120393753052,0.0
1103,-0.02217578887939453,-0.010378599166870117,-1.028341293334961,0.23498249053955078,-0.09567975997924805,-0.08081483840942383,-0.5781072378158569,1.2353073358535767,0.0,0.28842461109161377,0.1419864445924759,-2.0533204078674316,-0.4668363630771637,1.2651104927062988,0.0
1108,-0.02290821075439453,-0.014040708541870117,-1.017843246459961,-0.10089540481567383,0.20966386795043945,-0.21821928024291992,-0.7901203632354736,1.2891939878463745,0.0,0.28792014718055725,0.14303477108478546,-2.0544114112854004,-0.469736248254776,1.2663297653198242,0.0
1113,-0.02779102325439453,-0.010378599166870117,-1.020528793334961,0.03650951385498047,0.11806058883666992,-0.08081483840942383,-0.5824520587921143,1.5598115921020508,0.0,0.2881026864051819,0.14362508058547974,-2.0548155307769775,-0.47039031982421875,1.2690905332565308,0.0
1118,-0.02119922637939453,-0.010378599166870117,-1.021505355834961,-0.009292125701904297,0.24019813537597656,-0.14188337326049805,-0.5819856524467468,1.1888231039047241,0.0,0.28805622458457947,0.14482606947422028,-2.055525064468384,-0.47126221656799316,1.2696887254714966,0.0
1123,-0.02461719512939453,-0.015261411666870117,-1.012228012084961,0.28078413009643555,0.11806058883666992,0.1481928825378418,-0.8635305762290955,1.3929897546768188,0.0,0.289460152387619,0.14541637897491455,-2.054784059524536,-0.472767174243927,1.2711857557296753,0.0
1128,-0.02608203887939453,-0.011355161666870117,-1.020040512084961,0.09757804870605469,-0.08041238784790039,-0.03501319885253906,-0.6375858783721924,1.4646209478378296,0.0,0.289948046207428,0.14501431584358215,-2.0549590587615967,-0.47349902987480164,1.2722139358520508,0.0
1133,-0.02461719512939453,-0.009890317916870117,-1.019308090209961,0.25024986267089844,-0.2483515739440918,-0.08081483840942383,-0.555759847164154,1.383409857749939,0.0,0.29119929671287537,0.14377255737781525,-2.055363178253174,-0.4728631377220154,1.2718006372451782,0.0
1138,-0.02217578887939453,-0.010134458541870117,-1.013936996459961,-0.22303247451782227,-0.29415321350097656,-0.30982255935668945,-0.5725243091583252,1.252852201461792,0.0,0.2900841236114502,0.1423017978668213,-2.0569121837615967,-0.47470346093177795,1.2702012062072754,0.0
1143,-0.02266407012939453,-0.008425474166870117,-1.017843246459961,0.4945244789123535,-0.12621402740478516,-0.1571507453918457,-0.4741530418395996,1.2755367755889893,0.0,0.2925567328929901,0.14167073369026184,-2.0576980113983154,-0.4722449779510498,1.2696139812469482,0.0
1148,-0.02168750762939453,-0.005251646041870117,-1.017110824584961,0.09757804870605469,0.10279369354248047,0.20926141738891602,-0.29576531052589417,1.2214970588684082,0.0,0.2930446267127991,0.14218470454216003,-2.0566515922546387,-0.4704655408859253,1.2697709798812866,0.0
1153,-0.02657032012939453,-0.013064146041870117,-1.011007308959961,0.2655167579650879,-0.3857560157775879,-0.3556241989135742,-0.7400742173194885,1.5053203105926514,0.0,0.29437220096588135,0.14025592803955078,-2.058429718017578,-0.4711236357688904,1.2695826292037964,0.0
1158,-0.02241992950439453,-0.005984067916870117,-1.013448715209961,0.11284542083740234,0.11806058883666992,-0.24875402450561523,-0.3382253050804138,1.2672920227050781,0.0,0.2949364185333252,0.14084623754024506,-2.059673547744751,-0.46959081292152405,1.2701518535614014,0.0
1163,-0.01924610137939453,-0.008425474166870117,-1.021749496459961,-0.10089540481567383,-0.309420108795166,-0.1876850128173828,-0.4723736643791199,1.07908296585083,0.0,0.2944319546222687,0.13929913938045502,-2.0606119632720947,-0.4701119363307953,1.2672193050384521,0.0
1168,-0.02486133575439453,-0.005984067916870117,-1.014913558959961,0.14337968826293945,-0.32468748092651367,-0.1571507453918457,-0.3377184569835663,1.4032131433486938,0.0,0.2951488494873047,0.1376757025718689,-2.0613977909088135,-0.4684337079524994,1.2666006088256836,0.0
1173,-0.02022266387939453,-0.008181333541870117,-1.014913558959961,-0.2077655792236328,0.011190414428710938,0.07185697555541992,-0.4617661237716675,1.1414591073989868,0.0,0.2941100299358368,0.1377316564321518,-2.0610384941101074,-0.4694163203239441,1.265743613243103,0.0
1178,-0.02388477325439453,-0.008425474166870117,-1.024190902709961,-0.1772313117980957,-0.1109471321105957,-0.34035682678222656,-0.47120317816734314,1.3358861207962036,0.0,0.29322388768196106,0.13717691600322723,-2.0627403259277344,-0.4703090190887451,1.265703797340393,0.0
1184,-0.02559375762939453,-0.009890317916870117,-1.019796371459961,-0.08562803268432617,-0.17201566696166992,0.08712387084960938,-0.5554808378219604,1.437578797340393,0.0,0.29279574751853943,0.13631683588027954,-2.062304735183716,-0.47135356068611145,1.2661001682281494,0.0
1189,-0.02461719512939453,-0.005984067916870117,-1.018331527709961,0.28078413009643555,0.011190414428710938,-0.004478931427001953,-0.3365875780582428,1.384777307510376,0.0,0.29448044300079346,0.13638398051261902,-2.0623316764831543,-0.46869945526123047,1.2670313119888306,0.0
1194,-0.02364063262939453,-0.004030942916870117,-1.011739730834961,0.03650951385498047,-0.019343852996826172,0.16345977783203125,-0.2282126247882843,1.3385372161865234,0.0,0.2946629822254181,0.13628725707530975,-2.061514377593994,-0.4667685925960541,1.2674555778503418,0.0
1199,-0.02364063262939453,-0.006472349166870117,-1.017110824584961,0.5250587463378906,-0.1414813995361328,0.16345977783203125,-0.3644963204860687,1.3314549922943115,0.0,0.29728826880455017,0.13557985424995422,-2.060697078704834,-0.46341919898986816,1.2672183513641357,0.0
1204,-0.02241992950439453,-0.009646177291870117,-1.014181137084961,0.28078413009643555,-0.03461122512817383,-0.20295238494873047,-0.5448076128959656,1.2663419246673584,0.0,0.2986921966075897,0.13540679216384888,-2.0617117881774902,-0.4626161754131317,1.2670401334762573,0.0
1209,-0.02364063262939453,-0.006716489791870117,-1.018331527709961,-0.1772313117980957,-0.3857560157775879,-0.23348665237426758,-0.37779179215431213,1.3298574686050415,0.0,0.297806054353714,0.13347801566123962,-2.0628793239593506,-0.462880939245224,1.265580654144287,0.0
1214,-0.02217578887939453,-0.006716489791870117,-1.013936996459961,0.21971559524536133,-0.15674829483032227,-0.01974630355834961,-0.37944063544273376,1.25288724899292,0.0,0.2989046275615692,0.132694274187088,-2.0629780292510986,-0.46118611097335815,1.264710783958435,0.0
1219,-0.02388477325439453,-0.010622739791870117,-1.022237777709961,0.4945244789123535,0.0569920539855957,-0.1876850128173828,-0.5952139496803284,1.3384106159210205,0.0,0.30137723684310913,0.13297922909259796,-2.0639164447784424,-0.4597008228302002,1.2655266523361206,0.0
1224,-0.02461719512939453,-0.005007505416870117,-1.017110824584961,0.17391395568847656,0.2249307632446289,0.026055335998535156,-0.281997412443161,1.3864457607269287,0.0,0.3022468090057373,0.13410387933254242,-2.063786268234253,-0.4575536549091339,1.2675167322158813,0.0
1229,-0.02632617950439453,-0.011355161666870117,-1.018575668334961,0.3723874092102051,-0.20254993438720703,-0.03501319885253906,-0.6384981870651245,1.4804491996765137,0.0,0.30410873889923096,0.13309113681316376,-2.0639612674713135,-0.45701101422309875,1.2680479288101196,0.0
1234,-0.02779102325439453,-0.007937192916870117,-1.021017074584961,0.09757804870605469,0.04172468185424805,-0.1571507453918457,-0.44523265957832336,1.559099555015564,0.0,0.3045966327190399,0.13329975306987762,-2.0647470951080322,-0.456441730260849,1.2703531980514526,0.0
1239,-0.02364063262939453,-0.013308286666870117,-1.017599105834961,0.14337968826293945,0.14859485626220703,-0.24875402450561523,-0.7490764856338501,1.3307294845581055,0.0,0.3053135275840759,0.13404272496700287,-2.065990924835205,-0.45783731341362,1.2715256214141846,0.0
1244,-0.02193164825439453,-0.010866880416870117,-1.012960433959961,0.20444822311401367,-0.019343852996826172,-0.23348665237426758,-0.6144925355911255,1.240248203277588,0.0,0.30633577704429626,0.1339460015296936,-2.0671584606170654,-0.45794931054115295,1.2712045907974243,0.0
1249,-0.02168750762939453,-0.010866880416870117,-1.010763168334961,0.6777305603027344,-0.3399543762207031,-0.17241811752319336,-0.6158308386802673,1.2291110754013062,0.0,0.3097244203090668,0.1322462260723114,-2.0680205821990967,-0.455719530582428,1.2692145109176636,0.0
1254,-0.02193164825439453,-0.011843442916870117,-1.013692855834961,0.021242141723632812,0.04172468185424805,-0.1266164779663086,-0.6692260503768921,1.2393391132354736,0.0,0.3098306357860565,0.13245484232902527,-2.0686535835266113,-0.4571467339992523,1.2692071199417114,0.0
1259,-0.02119922637939453,-0.014040708541870117,-1.011739730834961,0.3571200370788574,-0.09567975997924805,0.04132270812988281,-0.794913113117218,1.2002410888671875,0.0,0.3116162419319153,0.1319764405488968,-2.0684468746185303,-0.4577960968017578,1.268237590789795,0.0
1264,-0.02608203887939453,-0.009402036666870117,-1.018087387084961,0.20444822311401367,-0.2483515739440918,-0.08081483840942383,-0.5289379358291626,1.4674577713012695,0.0,0.3126384913921356,0.13073468208312988,-2.0688509941101074,-0.4572908282279968,1.2684319019317627,0.0
1269,-0.02119922637939453,-0.010866880416870117,-1.020040512084961,0.1281123161315918,0.3318009376525879,0.16345977783203125,-0.6102389097213745,1.1905237436294556,0.0,0.31327906250953674,0.13239368796348572,-2.0680336952209473,-0.45774945616722107,1.2695214748382568,0.0
1274,-0.02388477325439453,-0.011843442916870117,-1.015890121459961,-0.1772313117980957,0.026457786560058594,-0.17241811752319336,-0.6677504777908325,1.3467516899108887,0.0,0.312392920255661,0.1325259804725647,-2.0688958168029785,-0.4601306915283203,1.270205020904541,0.0
1279,-0.02486133575439453,-0.006716489791870117,-1.011495590209961,0.03650951385498047,0.11806058883666992,0.16345977783203125,-0.3803325295448303,1.4079463481903076,0.0,0.31257545948028564,0.13311628997325897,-2.0680785179138184,-0.45937949419021606,1.2717750072479248,0.0
1284,-0.02412891387939453,-0.009890317916870117,-1.021505355834961,0.18918085098266602,-0.4468250274658203,0.04132270812988281,-0.5545715093612671,1.353065013885498,0.0,0.3135213553905487,0.1308821588754654,-2.0678718090057373,-0.45911961793899536,1.2701369524002075,0.0
1289,-0.02193164825439453,-0.007204771041870117,-1.018575668334961,-0.19249820709228516,-0.06514549255371094,-0.21821928024291992,-0.40517404675483704,1.2334531545639038,0.0,0.3125588595867157,0.13055643439292908,-2.068962812423706,-0.459690660238266,1.2695521116256714,0.0
1294,-0.02608203887939453,-0.007204771041870117,-1.018575668334961,0.021242141723632812,-0.2483515739440918,0.056589603424072266,-0.4051351845264435,1.466780424118042,0.0,0.31266507506370544,0.12931467592716217,-2.0686798095703125,-0.45919662714004517,1.269723892211914,0.0
1299,-0.02632617950439453,-0.007204771041870117,-1.017110824584961,-0.07036113739013672,0.11806058883666992,-0.11134910583496094,-0.4057157337665558,1.4826353788375854,0.0,0.3123132586479187,0.12990498542785645,-2.0692365169525146,-0.4591653645038605,1.2718250751495361,0.0
1304,-0.02437305450439453,-0.011111021041870117,-1.018331527709961,-0.13142967224121094,-0.20254993438720703,0.1481928825378418,-0.6249508261680603,1.3709911108016968,0.0,0.31165611743927,0.12889224290847778,-2.068495512008667,-0.46099647879600525,1.2715245485305786,0.0
1309,-0.02241992950439453,-0.009646177291870117,-1.014669418334961,0.06704378128051758,-0.1414813995361328,0.27032995223999023,-0.544545590877533,1.265732765197754,0.0,0.3119913339614868,0.12818484008312225,-2.0671439170837402,-0.46125710010528564,1.2707810401916504,0.0
1314,-0.02266407012939453,-0.005984067916870117,-1.012472152709961,0.3265857696533203,-0.12621402740478516,-0.1571507453918457,-0.33854952454566956,1.2823227643966675,0.0,0.3136242628097534,0.1275537759065628,-2.067929744720459,-0.4587649405002594,1.2702363729476929,0.0
1319,-0.02144336700439453,-0.009646177291870117,-1.021505355834961,0.005974769592285156,-0.4468250274658203,-0.17241811752319336,-0.5409145355224609,1.2025187015533447,0.0,0.3136541247367859,0.12531964480876923,-2.0687918663024902,-0.45931777358055115,1.2675379514694214,0.0
1324,-0.02266407012939453,-0.010622739791870117,-1.013692855834961,0.14337968826293945,-0.20254993438720703,-0.11134910583496094,-0.6002447605133057,1.2807310819625854,0.0,0.3143710196018219,0.12430689483880997,-2.0693485736846924,-0.4596043527126312,1.2666257619857788,0.0
1329,-0.02486133575439453,-0.007693052291870117,-1.024435043334961,-0.07036113739013672,0.1638622283935547,-0.03501319885253906,-0.43013113737106323,1.3901612758636475,0.0,0.31401920318603516,0.1251262128353119,-2.069523572921753,-0.45974504947662354,1.2683137655258179,0.0
1335,-0.02705860137939453,-0.005984067916870117,-1.021017074584961,0.3571200370788574,-0.019343852996826172,-0.11134910583496094,-0.3356825113296509,1.5180492401123047,0.0,0.3161619305610657,0.125010147690773,-2.0701916217803955,-0.4567376971244812,1.2699695825576782,0.0
1340,-0.02437305450439453,-0.007937192916870117,-1.010763168334961,0.09757804870605469,-0.08041238784790039,-0.20295238494873047,-0.449785053730011,1.381292462348938,0.0,0.31664982438087463,0.12460808455944061,-2.0712063312530518,-0.45620399713516235,1.2703591585159302,0.0
1345,-0.02290821075439453,-0.010866880416870117,-1.019063949584961,0.09757804870605469,0.17912960052490234,-0.2640209197998047,-0.6108012795448303,1.287699580192566,0.0,0.3171377182006836,0.12550373375415802,-2.072526454925537,-0.4568140506744385,1.2713712453842163,0.0
1350,-0.02486133575439453,-0.009402036666870117,-1.020772933959961,0.44872283935546875,-0.3399543762207031,-0.1571507453918457,-0.5275630354881287,1.3951268196105957,0.0,0.31938132643699646,0.12380395829677582,-2.073312282562256,-0.45508676767349243,1.2705588340759277,0.0
1355,-0.02046680450439453,-0.009402036666870117,-1.019552230834961,0.1586465835571289,-0.03461122512817383,0.2550630569458008,-0.5282449126243591,1.1499696969985962,0.0,0.32017454504966736,0.12363090366125107,-2.0720369815826416,-0.45481622219085693,1.269534707069397,0.0
1360,-0.02681446075439453,-0.009402036666870117,-1.017843246459961,-0.2535672187805176,-0.43155765533447266,0.23979568481445312,-0.5290548205375671,1.5090090036392212,0.0,0.31890669465065,0.12147311866283417,-2.07083797454834,-0.4565993845462799,1.2690833806991577,0.0
1365,-0.02193164825439453,-0.007937192916870117,-1.020528793334961,0.41818857192993164,0.026457786560058594,0.16345977783203125,-0.4455077648162842,1.2310867309570312,0.0,0.3209976255893707,0.12160541117191315,-2.0700206756591797,-0.454444944858551,1.268946647644043,0.0
1370,-0.02486133575439453,-0.008669614791870117,-1.011007308959961,0.08231067657470703,0.026457786560058594,0.2550630569458008,-0.4911636710166931,1.4086053371429443,0.0,0.3214091658592224,0.12173770368099213,-2.0687453746795654,-0.45429518818855286,1.2700626850128174,0.0
1375,-0.02339649200439453,-0.013552427291870117,-1.016378402709961,0.28078413009643555,-0.06514549255371094,-0.08081483840942383,-0.7637364864349365,1.3185683488845825,0.0,0.32281309366226196,0.12141197919845581,-2.0691494941711426,-0.4550812244415283,1.2700810432434082,0.0
1380,-0.01900196075439453,-0.010134458541870117,-1.020284652709961,0.1586465835571289,-0.1414813995361328,0.08712387084960938,-0.5689999461174011,1.066910743713379,0.0,0.32360631227493286,0.12070456892251968,-2.068713903427124,-0.4550955593585968,1.2679483890533447,0.0
1385,-0.02217578887939453,-0.009890317916870117,-1.018331527709961,-0.19249820709228516,-0.09567975997924805,-0.1876850128173828,-0.5563231110572815,1.2474507093429565,0.0,0.32264381647109985,0.1202261671423912,-2.0696523189544678,-0.456763356924057,1.267329216003418,0.0
1390,-0.02608203887939453,-0.012575864791870117,-1.015401840209961,-0.13142967224121094,-0.2483515739440918,-0.1266164779663086,-0.7093443870544434,1.4712871313095093,0.0,0.32198667526245117,0.1189844086766243,-2.0702853202819824,-0.45919129252433777,1.2675297260284424,0.0
1395,-0.02412891387939453,-0.005984067916870117,-1.019552230834961,0.23498249053955078,-0.20254993438720703,-0.05028057098388672,-0.3361886739730835,1.355696201324463,0.0,0.32316160202026367,0.11797165870666504,-2.0705366134643555,-0.45716068148612976,1.2671432495117188,0.0
1400,-0.02461719512939453,-0.013308286666870117,-1.021749496459961,0.14337968826293945,-0.12621402740478516,-0.01974630355834961,-0.7460188269615173,1.3800535202026367,0.0,0.3238784968852997,0.117340587079525,-2.0706353187561035,-0.4584762156009674,1.2673090696334839,0.0
1405,-0.02046680450439453,-0.009402036666870117,-1.014669418334961,0.03650951385498047,-0.17201566696166992,-0.08081483840942383,-0.5307857394218445,1.1555016040802002,0.0,0.3240610361099243,0.1164805069565773,-2.0710394382476807,-0.45880210399627686,1.265670895576477,0.0
1410,-0.02534961700439453,-0.008669614791870117,-1.019796371459961,-0.024559497833251953,0.13332796096801758,0.19399404525756836,-0.4869275987148285,1.423886775970459,0.0,0.323938250541687,0.11714714765548706,-2.0700695514678955,-0.45912113785743713,1.267441749572754,0.0
1415,-0.02119922637939453,-0.010378599166870117,-1.018087387084961,0.1281123161315918,-0.004076957702636719,-0.2945551872253418,-0.5839385390281677,1.1928128004074097,0.0,0.32457882165908813,0.11712676286697388,-2.071542263031006,-0.45935922861099243,1.2668988704681396,0.0
1420,-0.02290821075439453,-0.013552427291870117,-1.010763168334961,0.09757804870605469,-0.23308420181274414,0.19399404525756836,-0.7679851055145264,1.298228144645691,0.0,0.3250667154788971,0.11596134305000305,-2.0705723762512207,-0.46103474497795105,1.265960931777954,0.0
1425,-0.02290821075439453,-0.008181333541870117,-1.014669418334961,0.20444822311401367,-0.06514549255371094,0.07185697555541992,-0.46185120940208435,1.2933061122894287,0.0,0.32608896493911743,0.11563561856746674,-2.0702130794525146,-0.4600253701210022,1.2658287286758423,0.0
1430,-0.02583789825439453,-0.005984067916870117,-1.020040512084961,0.11284542083740234,-0.29415321350097656,-0.24875402450561523,-0.336014062166214,1.4509820938110352,0.0,0.3266531825065613,0.11416485160589218,-2.0714569091796875,-0.45859837532043457,1.2656623125076294,0.0
1435,-0.02315235137939453,-0.006716489791870117,-1.015157699584961,-0.05509376525878906,-0.03461122512817383,-0.17241811752319336,-0.3789764642715454,1.3064700365066528,0.0,0.3263777196407318,0.11399179697036743,-2.0723190307617188,-0.45831578969955444,1.265775442123413,0.0
1440,-0.02364063262939453,-0.008181333541870117,-1.017843246459961,0.25024986267089844,-0.019343852996826172,-0.01974630355834961,-0.46040430665016174,1.3304811716079712,0.0,0.3276289701461792,0.11389508098363876,-2.072417736053467,-0.45708784461021423,1.266131043434143,0.0
1445,-0.02388477325439453,-0.003786802291870117,-1.017110824584961,-0.08562803268432617,0.10279369354248047,0.08712387084960938,-0.21325796842575073,1.3452179431915283,0.0,0.32720082998275757,0.11440905183553696,-2.0719821453094482,-0.4558122158050537,1.267193078994751,0.0
1450,-0.02364063262939453,-0.012331724166870117,-1.020040512084961,-0.009292125701904297,0.04172468185424805,0.08712387084960938,-0.6924545168876648,1.3275620937347412,0.0,0.32715436816215515,0.11461767554283142,-2.0715465545654297,-0.4575079381465912,1.2678210735321045,0.0
1455,-0.02510547637939453,-0.009402036666870117,-1.011007308959961,0.03650951385498047,-0.3399543762207031,0.22452878952026367,-0.5326524376869202,1.4224231243133545,0.0,0.3273369073867798,0.11291790008544922,-2.0704238414764404,-0.4578501582145691,1.2672101259231567,0.0
1460,-0.02266407012939453,-0.010866880416870117,-1.016866683959961,0.2960515022277832,-0.2178173065185547,0.16345977783203125,-0.6121236085891724,1.2767322063446045,0.0,0.3288171589374542,0.11182881146669388,-2.0696065425872803,-0.45745426416397095,1.2661949396133423,0.0
1465,-0.02364063262939453,-0.012087583541870117,-1.020284652709961,-0.10089540481567383,-0.1109471321105957,-0.23348665237426758,-0.6785844564437866,1.3272483348846436,0.0,0.3283126950263977,0.11127407848834991,-2.0707740783691406,-0.4594937860965729,1.266068935394287,0.0
1470,-0.02730274200439453,-0.008669614791870117,-1.011495590209961,-0.07036113739013672,-0.40102338790893555,0.23979568481445312,-0.49089619517326355,1.5461211204528809,0.0,0.32796087861061096,0.10926896333694458,-2.069575071334839,-0.46006152033805847,1.2660250663757324,0.0
1475,-0.02461719512939453,-0.009646177291870117,-1.020772933959961,0.1281123161315918,-0.43155765533447266,-0.17241811752319336,-0.541264533996582,1.3814287185668945,0.0,0.3286014497280121,0.10711117833852768,-2.07043719291687,-0.4599896967411041,1.2646842002868652,0.0
1481,-0.02217578887939453,-0.008913755416870117,-1.011007308959961,-0.009292125701904297,0.13332796096801758,-0.2945551872253418,-0.5050255656242371,1.2564953565597534,0.0,0.32855498790740967,0.10777781903743744,-2.0719099044799805,-0.46034860610961914,1.265289306640625,0.0
1486,-0.02144336700439453,-0.010134458541870117,-1.019063949584961,-0.4520401954650879,-0.06514549255371094,0.04132270812988281,-0.5696542263031006,1.205392837524414,0.0,0.3258427381515503,0.10738694667816162,-2.071661949157715,-0.4638027846813202,1.2644842863082886,0.0
1491,-0.02193164825439453,-0.012331724166870117,-1.014181137084961,0.1281123161315918,-0.06514549255371094,0.1481928825378418,-0.6964789628982544,1.238735556602478,0.0,0.3264833092689514,0.1070612221956253,-2.070920944213867,-0.4647851884365082,1.263981819152832,0.0
1496,-0.02290821075439453,-0.005739927291870117,-1.016622543334961,0.1281123161315918,-0.12621402740478516,-0.4930286407470703,-0.3234107494354248,1.2908437252044678,0.0,0.32712388038635254,0.10643015056848526,-2.0733861923217773,-0.4631662666797638,1.2635418176651,0.0
1501,-0.01875782012939453,-0.009402036666870117,-1.017843246459961,0.14337968826293945,-0.26361894607543945,0.056589603424072266,-0.529148519039154,1.0557386875152588,0.0,0.32784077525138855,0.10511205345392227,-2.073103189468384,-0.46291276812553406,1.260789155960083,0.0
1506,-0.02315235137939453,-0.009646177291870117,-1.016378402709961,0.09757804870605469,-0.3399543762207031,0.04132270812988281,-0.5436216592788696,1.3048712015151978,0.0,0.3283286690711975,0.10341227799654007,-2.0728964805603027,-0.4629886746406555,1.2594072818756104,0.0
1511,-0.02217578887939453,-0.008669614791870117,-1.014913558959961,0.21971559524536133,0.0569920539855957,0.07185697555541992,-0.48930445313453674,1.2516639232635498,0.0,0.32942724227905273,0.10369724035263062,-2.0725371837615967,-0.46208035945892334,1.2596365213394165,0.0
1516,-0.02412891387939453,-0.006472349166870117,-1.017354965209961,0.03650951385498047,0.0569920539855957,-0.03501319885253906,-0.3644047975540161,1.3586190938949585,0.0,0.32960978150367737,0.10398220270872116,-2.0727121829986572,-0.4612216651439667,1.2606059312820435,0.0
1521,-0.02144336700439453,-0.011111021041870117,-1.021261215209961,0.1586465835571289,-0.32468748092651367,-0.20295238494873047,-0.6231992244720459,1.2027884721755981,0.0,0.33040300011634827,0.10235876590013504,-2.0737268924713135,-0.46155670285224915,1.2585930824279785,0.0
1526,-0.01973438262939453,-0.006716489791870117,-1.017354965209961,0.18918085098266602,-0.4926261901855469,0.07185697555541992,-0.3781851530075073,1.111244797706604,0.0,0.33134889602661133,0.09989563375711441,-2.0733675956726074,-0.46003979444503784,1.2551262378692627,0.0
1531,-0.02290821075439453,-0.010378599166870117,-1.017110824584961,0.021242141723632812,0.011190414428710938,0.026055335998535156,-0.5844776630401611,1.290177583694458,0.0,0.3314551115036011,0.09995158761739731,-2.073237419128418,-0.46079590916633606,1.2554244995117188,0.0
1536,-0.02705860137939453,-0.008913755416870117,-1.018087387084961,-0.11616230010986328,-0.4468250274658203,-0.03501319885253906,-0.5014572143554688,1.522383451461792,0.0,0.3308742940425873,0.09771746397018433,-2.0734124183654785,-0.46165409684181213,1.2550532817840576,0.0
1541,-0.02388477325439453,-0.006472349166870117,-1.013448715209961,-0.19249820709228516,-0.004076957702636719,-0.1876850128173828,-0.3658106327056885,1.350058913230896,0.0,0.3299117982387543,0.09769707918167114,-2.0743508338928223,-0.4619470536708832,1.255690097808838,0.0
1546,-0.02071094512939453,-0.007693052291870117,-1.008077621459961,-0.2841014862060547,-0.019343852996826172,-0.11134910583496094,-0.43714678287506104,1.1769413948059082,0.0,0.32849130034446716,0.09760036319494247,-2.0749075412750244,-0.4631862938404083,1.255049705505371,0.0
1551,-0.02461719512939453,-0.006960630416870117,-1.018819808959961,0.23498249053955078,-0.04987812042236328,0.10239124298095703,-0.39132747054100037,1.3841054439544678,0.0,0.32966622710227966,0.09735096991062164,-2.0743956565856934,-0.46152299642562866,1.2556936740875244,0.0
1556,-0.02168750762939453,-0.009402036666870117,-1.011007308959961,0.05177640914916992,-0.416290283203125,-0.17241811752319336,-0.5326941013336182,1.2288322448730469,0.0,0.3299251198768616,0.09526951611042023,-2.0752577781677246,-0.4617573618888855,1.2534412145614624,0.0
1561,-0.02071094512939453,-0.010622739791870117,-1.021505355834961,0.1586465835571289,-0.2178173065185547,-0.2640209197998047,-0.595680832862854,1.1614457368850708,0.0,0.33071833848953247,0.09418042749166489,-2.07657790184021,-0.4618939459323883,1.2517247200012207,0.0
1566,-0.02608203887939453,-0.006716489791870117,-1.014913558959961,-0.05509376525878906,0.24019813537597656,-0.004478931427001953,-0.37904104590415955,1.472075343132019,0.0,0.330442875623703,0.09538141638040543,-2.0766003131866455,-0.46159595251083374,1.2544375658035278,0.0
1571,-0.02071094512939453,-0.011355161666870117,-1.022970199584961,0.18918085098266602,-0.43155765533447266,-0.38615846633911133,-0.6358374953269958,1.1597743034362793,0.0,0.33138877153396606,0.09322363138198853,-2.07853102684021,-0.46185800433158875,1.251641869544983,0.0
1576,-0.02217578887939453,-0.010378599166870117,-1.017843246459961,0.09757804870605469,0.17912960052490234,-0.3556241989135742,-0.58406662940979,1.2480429410934448,0.0,0.331876665353775,0.09411928057670593,-2.0803091526031494,-0.46221569180488586,1.2525064945220947,0.0
1581,-0.02266407012939453,-0.009157896041870117,-1.019552230834961,0.20444822311401367,-0.09567975997924805,0.2855973243713379,-0.5145053863525391,1.2733917236328125,0.0,0.33289891481399536,0.09364087879657745,-2.07888126373291,-0.4615606665611267,1.252175211906433,0.0
1586,-0.02241992950439453,-0.010134458541870117,-1.011739730834961,0.03650951385498047,-0.3399543762207031,-0.06554794311523438,-0.5737639665603638,1.2693904638290405,0.0,0.33308145403862,0.09194110333919525,-2.079209089279175,-0.4621519148349762,1.250605583190918,0.0
1591,-0.02657032012939453,-0.010134458541870117,-1.018087387084961,0.14337968826293945,-0.23308420181274414,-0.01974630355834961,-0.5701326727867126,1.4949073791503906,0.0,0.333798348903656,0.09077568352222443,-2.079307794570923,-0.46218305826187134,1.2511295080184937,0.0
1596,-0.02241992950439453,-0.008913755416870117,-1.017599105834961,0.05177640914916992,-0.20254993438720703,-0.01974630355834961,-0.5017532110214233,1.2620984315872192,0.0,0.3340572416782379,0.08976293355226517,-2.079406499862671,-0.4621981382369995,1.2501990795135498,0.0
1601,-0.02266407012939453,-0.007204771041870117,-1.018575668334961,0.08231067657470703,-0.18728303909301758,-0.09608221054077148,-0.40516766905784607,1.2746317386627197,0.0,0.3344687819480896,0.08882651478052139,-2.0798869132995605,-0.46139732003211975,1.2494370937347412,0.0
1606,-0.02266407012939453,-0.007204771041870117,-1.011007308959961,0.03650951385498047,0.17912960052490234,-0.1876850128173828,-0.40819913148880005,1.2841699123382568,0.0,0.33465132117271423,0.0897221639752388,-2.0808253288269043,-0.46085044741630554,1.2505652904510498,0.0
1611,-0.02412891387939453,-0.008913755416870117,-1.014913558959961,-0.024559497833251953,0.13332796096801758,0.27032995223999023,-0.5030607581138611,1.3618611097335815,0.0,0.33452853560447693,0.09038880467414856,-2.0794737339019775,-0.4612623453140259,1.251991868019104,0.0
1616,-0.02657032012939453,-0.008913755416870117,-1.012228012084961,0.21971559524536133,-0.20254993438720703,-0.1571507453918457,-0.5043641328811646,1.5035730600357056,0.0,0.33562710881233215,0.0893760547041893,-2.0802595615386963,-0.46046727895736694,1.2527134418487549,0.0
1621,-0.02046680450439453,-0.009402036666870117,-1.015890121459961,0.18918085098266602,-0.40102338790893555,0.16345977783203125,-0.5301482081413269,1.1541136503219604,0.0,0.3365730047225952,0.08737093955278397,-2.079442262649536,-0.46000611782073975,1.2500454187393188,0.0
1627,-0.02364063262939453,-0.008425474166870117,-1.013936996459961,0.38765430450439453,-0.004076957702636719,-0.27928829193115234,-0.47596827149391174,1.335602045059204,0.0,0.33851128816604614,0.08735055476427078,-2.080838680267334,-0.4581906497478485,1.2506121397018433,0.0
1632,-0.02437305450439453,-0.011355161666870117,-1.013448715209961,0.1586465835571289,-0.04987812042236328,0.04132270812988281,-0.6417567729949951,1.3775895833969116,0.0,0.33946317434310913,0.08705128729343414,-2.0805907249450684,-0.4585076570510864,1.2511881589889526,0.0
1637,-0.02510547637939453,-0.007204771041870117,-1.022481918334961,-0.2077655792236328,-0.309420108795166,-0.004478931427001953,-0.4035980999469757,1.4064925909042358,0.0,0.33842435479164124,0.0855041891336441,-2.080613136291504,-0.4591619074344635,1.2507191896438599,0.0
1642,-0.02510547637939453,-0.005495786666870117,-1.015157699584961,-0.024559497833251953,-0.17201566696166992,0.13292551040649414,-0.31008586287498474,1.416650414466858,0.0,0.33830156922340393,0.08464410901069641,-2.0799484252929688,-0.45825961232185364,1.2510050535202026,0.0
1647,-0.02241992950439453,-0.008913755416870117,-1.013936996459961,0.25024986267089844,-0.08041238784790039,-0.05028057098388672,-0.5035644173622131,1.2666550874710083,0.0,0.3395528197288513,0.08424204587936401,-2.080199718475342,-0.45732808113098145,1.2507132291793823,0.0
1652,-0.02217578887939453,-0.005984067916870117,-1.014913558959961,0.17391395568847656,-0.09567975997924805,0.16345977783203125,-0.33773916959762573,1.25168776512146,0.0,0.3404223918914795,0.08376364409923553,-2.0793824195861816,-0.45564356446266174,1.2502448558807373,0.0
1657,-0.02388477325439453,-0.009402036666870117,-1.018819808959961,0.05177640914916992,-0.2483515739440918,-0.3250899314880371,-0.5285859107971191,1.3429144620895386,0.0,0.3406812846660614,0.08252188563346863,-2.081007957458496,-0.45588693022727966,1.2496473789215088,0.0
1662,-0.02144336700439453,-0.009890317916870117,-1.021505355834961,0.1281123161315918,-0.09567975997924805,-0.24875402450561523,-0.5546039938926697,1.202515959739685,0.0,0.3413218557834625,0.08204348385334015,-2.082251787185669,-0.4559278190135956,1.2488490343093872,0.0
1667,-0.02608203887939453,-0.009646177291870117,-1.019796371459961,0.1281123161315918,-0.15674829483032227,-0.08081483840942383,-0.541763186454773,1.464996576309204,0.0,0.34196242690086365,0.08125974237918854,-2.082655906677246,-0.4558801054954529,1.249552607536316,0.0
1672,-0.01778125762939453,-0.011355161666870117,-1.012472152709961,0.08231067657470703,0.0569920539855957,0.0107879638671875,-0.6424623727798462,1.00607430934906,0.0,0.34237396717071533,0.08154470473527908,-2.082602024078369,-0.4567500054836273,1.2481670379638672,0.0
1677,-0.02266407012939453,-0.004763364791870117,-1.022481918334961,0.11284542083740234,-0.18728303909301758,0.026055335998535156,-0.26685234904289246,1.2697817087173462,0.0,0.3429381847381592,0.08060828596353531,-2.0824718475341797,-0.45488885045051575,1.2473851442337036,0.0
1682,-0.02193164825439453,-0.005495786666870117,-1.021993637084961,0.05177640914916992,-0.09567975997924805,0.026055335998535156,-0.3080350458621979,1.2293422222137451,0.0,0.3431970775127411,0.08012988418340683,-2.0823416709899902,-0.45362618565559387,1.2467864751815796,0.0
1687,-0.02339649200439453,-0.006716489791870117,-1.020528793334961,0.17391395568847656,-0.2178173065185547,-0.11134910583496094,-0.37698090076446533,1.3132960796356201,0.0,0.34406664967536926,0.07904079556465149,-2.0828983783721924,-0.45223796367645264,1.2461600303649902,0.0
1692,-0.02998828887939453,-0.005739927291870117,-1.019308090209961,0.6319293975830078,-0.26361894607543945,-0.2945551872253418,-0.3225010335445404,1.6851427555084229,0.0,0.3472262918949127,0.0777226984500885,-2.0843710899353027,-0.44821229577064514,1.247854471206665,0.0
1697,-0.02364063262939453,-0.007204771041870117,-1.010030746459961,0.31131839752197266,-0.2178173065185547,-0.24875402450561523,-0.4085845351219177,1.3407777547836304,0.0,0.34878289699554443,0.07663360983133316,-2.0856149196624756,-0.44639530777931213,1.247408390045166,0.0
1702,-0.02583789825439453,-0.009890317916870117,-1.017354965209961,0.06704378128051758,-0.40102338790893555,-0.21821928024291992,-0.5568095445632935,1.4547669887542725,0.0,0.34911811351776123,0.07462849467992783,-2.0867059230804443,-0.4468172490596771,1.246834635734558,0.0
1707,-0.02144336700439453,-0.006716489791870117,-1.017110824584961,-0.11616230010986328,-0.09567975997924805,-0.3250899314880371,-0.37826302647590637,1.2077401876449585,0.0,0.34853729605674744,0.07415009289979935,-2.088331460952759,-0.4469255805015564,1.2460923194885254,0.0
1712,-0.02876758575439453,-0.009157896041870117,-1.019552230834961,0.4945244789123535,0.17912960052490234,-0.11134910583496094,-0.5144277215003967,1.616158127784729,0.0,0.35100990533828735,0.07504574209451675,-2.088888168334961,-0.4449310004711151,1.2495099306106567,0.0
1717,-0.02241992950439453,-0.011599302291870117,-1.022481918334961,0.21971559524536133,-0.08041238784790039,0.08712387084960938,-0.6497942805290222,1.2560406923294067,0.0,0.3521084785461426,0.07464367896318436,-2.0884525775909424,-0.44523894786834717,1.2491551637649536,0.0
1722,-0.02803516387939453,-0.010622739791870117,-1.011983871459961,0.021242141723632812,-0.17201566696166992,-0.30982255935668945,-0.601177990436554,1.586781620979309,0.0,0.3522146940231323,0.07378359884023666,-2.0900015830993652,-0.4461979866027832,1.2506057024002075,0.0
1727,-0.02315235137939453,-0.007448911666870117,-1.021749496459961,0.20444822311401367,-0.09567975997924805,-0.05028057098388672,-0.41759172081947327,1.298038125038147,0.0,0.35323694348335266,0.07330519706010818,-2.0902528762817383,-0.4449875056743622,1.250454306602478,0.0
1732,-0.02193164825439453,-0.008425474166870117,-1.014669418334961,0.14337968826293945,-0.29415321350097656,-0.004478931427001953,-0.4756428897380829,1.23818838596344,0.0,0.35395383834838867,0.07183443009853363,-2.090275287628174,-0.4444846212863922,1.248909831047058,0.0
1737,-0.01997852325439453,-0.008669614791870117,-1.011495590209961,0.14337968826293945,0.27073240280151367,-0.24875402450561523,-0.49097922444343567,1.1314871311187744,0.0,0.3546707332134247,0.07318808883428574,-2.0915191173553467,-0.4440896809101105,1.2494534254074097,0.0
1742,-0.02168750762939453,-0.010134458541870117,-1.019308090209961,0.5097918510437012,0.0569920539855957,0.30086469650268555,-0.5695149302482605,1.2188206911087036,0.0,0.3572196960449219,0.07347305119037628,-2.090014696121216,-0.4424131214618683,1.2495275735855103,0.0
1747,-0.02339649200439453,-0.010866880416870117,-1.017110824584961,0.23498249053955078,-0.309420108795166,0.23979568481445312,-0.6119667887687683,1.317661166191101,0.0,0.3583946228027344,0.07192595303058624,-2.088815689086914,-0.442401647567749,1.248455286026001,0.0
1752,-0.02315235137939453,-0.007693052291870117,-1.017110824584961,0.1586465835571289,0.026457786560058594,0.316131591796875,-0.4332437217235565,1.3039532899856567,0.0,0.3591878414154053,0.07205824553966522,-2.0872349739074707,-0.44155144691467285,1.248964786529541,0.0
1757,-0.02534961700439453,-0.007693052291870117,-1.018819808959961,0.17391395568847656,0.14859485626220703,-0.09608221054077148,-0.43249520659446716,1.4252619743347168,0.0,0.36005741357803345,0.07280121743679047,-2.0877153873443604,-0.4406261146068573,1.2509033679962158,0.0
1762,-0.02241992950439453,-0.011111021041870117,-1.014181137084961,0.3265857696533203,-0.04987812042236328,-0.2945551872253418,-0.6275345087051392,1.266323208808899,0.0,0.36169034242630005,0.07255182415246964,-2.0891880989074707,-0.44027674198150635,1.2507606744766235,0.0
1767,-0.02315235137939453,-0.010134458541870117,-1.016866683959961,0.06704378128051758,-0.06514549255371094,-0.14188337326049805,-0.5708634853363037,1.3042387962341309,0.0,0.36202555894851685,0.07222609966993332,-2.089897632598877,-0.4408325254917145,1.2508012056350708,0.0
1772,-0.02583789825439453,-0.009890317916870117,-1.020772933959961,-0.13142967224121094,-0.20254993438720703,0.0107879638671875,-0.5549464225769043,1.449898362159729,0.0,0.36136841773986816,0.07121334969997406,-2.08984375,-0.44226157665252686,1.2511498928070068,0.0
1778,-0.02119922637939453,-0.009402036666870117,-1.021261215209961,-0.26883411407470703,0.0569920539855957,-0.09608221054077148,-0.5273535847663879,1.1891182661056519,0.0,0.36002424359321594,0.0714983120560646,-2.0903241634368896,-0.4441753625869751,1.2510110139846802,0.0
1783,-0.02681446075439453,-0.012087583541870117,-1.009786605834961,0.03650951385498047,-0.23308420181274414,-0.34035682678222656,-0.6855809092521667,1.5209990739822388,0.0,0.3602432906627655,0.07009980827569962,-2.0923662185668945,-0.4456038475036621,1.2514629364013672,0.0
1788,-0.02559375762939453,-0.007693052291870117,-1.022237777709961,0.31131839752197266,0.011190414428710938,-0.08081483840942383,-0.4310474991798401,1.4341737031936646,0.0,0.3617998957633972,0.07015576213598251,-2.0927703380584717,-0.4439586400985718,1.2527638673782349,0.0
1793,-0.02266407012939453,-0.007204771041870117,-1.014425277709961,0.5250587463378906,0.20966386795043945,0.11765861511230469,-0.4068244993686676,1.2798447608947754,0.0,0.3644251823425293,0.07120408117771149,-2.092182159423828,-0.4410982131958008,1.253989577293396,0.0
1798,-0.02437305450439453,-0.006472349166870117,-1.013692855834961,-0.05509376525878906,-0.40102338790893555,-0.2640209197998047,-0.36571839451789856,1.3773163557052612,0.0,0.36414971947669983,0.06919896602630615,-2.0935022830963135,-0.4408583343029022,1.2528382539749146,0.0
1803,-0.02241992950439453,-0.009890317916870117,-1.015157699584961,-0.11616230010986328,-0.20254993438720703,0.08712387084960938,-0.558058500289917,1.265121340751648,0.0,0.36356890201568604,0.0681862160563469,-2.093066692352295,-0.44223326444625854,1.2519159317016602,0.0
1808,-0.02486133575439453,-0.007448911666870117,-1.021017074584961,0.1586465835571289,-0.004076957702636719,0.23979568481445312,-0.41787466406822205,1.3948153257369995,0.0,0.36436212062835693,0.06816583126783371,-2.091867685317993,-0.4412796199321747,1.252868413925171,0.0
1813,-0.02510547637939453,-0.007937192916870117,-1.014181137084961,0.2960515022277832,-0.32468748092651367,-0.8289065361022949,-0.4482622444629669,1.4179913997650146,0.0,0.36584237217903137,0.06654239445924759,-2.0960121154785156,-0.43985694646835327,1.2523797750473022,0.0
1818,-0.02559375762939453,-0.012087583541870117,-1.012228012084961,0.23498249053955078,-0.06514549255371094,-0.27928829193115234,-0.6839500069618225,1.4482877254486084,0.0,0.36701729893684387,0.06621666997671127,-2.0974085330963135,-0.4403505325317383,1.2533890008926392,0.0
1823,-0.02559375762939453,-0.005739927291870117,-1.022970199584961,0.5403261184692383,0.011190414428710938,-0.1876850128173828,-0.321384996175766,1.4331653118133545,0.0,0.3697189390659332,0.06627262383699417,-2.0983469486236572,-0.436858206987381,1.2546671628952026,0.0
1828,-0.02534961700439453,-0.005984067916870117,-1.015401840209961,-0.024559497833251953,-0.18728303909301758,0.36193323135375977,-0.33755216002464294,1.4300734996795654,0.0,0.3695961534976959,0.0653362050652504,-2.0965373516082764,-0.4363050162792206,1.2549296617507935,0.0
1833,-0.02119922637939453,-0.007693052291870117,-1.015157699584961,0.18918085098266602,-0.29415321350097656,-0.11134910583496094,-0.43409502506256104,1.196281909942627,0.0,0.370542049407959,0.06386543810367584,-2.0970940589904785,-0.43535053730010986,1.2530702352523804,0.0
1838,-0.02583789825439453,-0.006472349166870117,-1.015645980834961,0.005974769592285156,-0.2788858413696289,0.04132270812988281,-0.36500251293182373,1.457253098487854,0.0,0.37057191133499146,0.06247100979089737,-2.0968873500823975,-0.43484288454055786,1.2530726194381714,0.0
1843,-0.02632617950439453,-0.010134458541870117,-1.014425277709961,0.28078413009643555,-0.309420108795166,-0.14188337326049805,-0.572192907333374,1.4865217208862305,0.0,0.371975839138031,0.06092390790581703,-2.0975968837738037,-0.4343814551830292,1.2531217336654663,0.0
1848,-0.02461719512939453,-0.009157896041870117,-1.018575668334961,0.09757804870605469,-0.17201566696166992,0.0107879638671875,-0.5149754881858826,1.384413480758667,0.0,0.37246373295783997,0.06006382778286934,-2.0975430011749268,-0.4344441592693329,1.2531590461730957,0.0
1853,-0.02315235137939453,-0.010378599166870117,-1.016866683959961,-0.039826393127441406,-0.12621402740478516,0.04132270812988281,-0.5846146941184998,1.3042356967926025,0.0,0.3722645938396454,0.059432756155729294,-2.0973362922668457,-0.4356614053249359,1.252879023551941,0.0
1858,-0.02241992950439453,-0.006228208541870117,-1.020772933959961,0.14337968826293945,0.026457786560058594,0.0107879638671875,-0.3494994640350342,1.2582004070281982,0.0,0.3729814887046814,0.059565044939517975,-2.0972824096679688,-0.4343646168708801,1.2530465126037598,0.0
1863,-0.02388477325439453,-0.009157896041870117,-1.022970199584961,0.11284542083740234,-0.09567975997924805,-0.2640209197998047,-0.512773334980011,1.33747136592865,0.0,0.37354570627212524,0.059086646884679794,-2.098602533340454,-0.43433621525764465,1.2531441450119019,0.0
1868,-0.02144336700439453,-0.008425474166870117,-1.016866683959961,0.18918085098266602,-0.06514549255371094,-0.1876850128173828,-0.4746204912662506,1.208014965057373,0.0,0.3744916021823883,0.05876091867685318,-2.099540948867798,-0.4336699843406677,1.2525146007537842,0.0
1873,-0.02217578887939453,-0.009402036666870117,-1.013448715209961,0.18918085098266602,0.3928699493408203,0.056589603424072266,-0.5314059257507324,1.2534642219543457,0.0,0.37543749809265137,0.060725267976522446,-2.0992579460144043,-0.4333932399749756,1.254472017288208,0.0
1878,-0.02486133575439453,-0.008913755416870117,-1.013448715209961,0.38765430450439453,-0.019343852996826172,-0.23348665237426758,-0.5037786364555359,1.4052106142044067,0.0,0.3773757815361023,0.06062854826450348,-2.1004254817962646,-0.431945264339447,1.255397915840149,0.0
1883,-0.02266407012939453,-0.010134458541870117,-1.017354965209961,0.18918085098266602,0.37760257720947266,-0.01974630355834961,-0.5705958008766174,1.2761292457580566,0.0,0.37832167744636536,0.06251656264066696,-2.1005241870880127,-0.43194547295570374,1.257413625717163,0.0
1888,-0.02583789825439453,-0.007937192916870117,-1.017599105834961,0.08231067657470703,-0.20254993438720703,-0.5388302803039551,-0.4467495381832123,1.4544426202774048,0.0,0.37873321771621704,0.0615038126707077,-2.1032183170318604,-0.4316370189189911,1.2577426433563232,0.0
1893,-0.02608203887939453,-0.011599302291870117,-1.020040512084961,0.18918085098266602,0.27073240280151367,0.1787271499633789,-0.6512930393218994,1.4646170139312744,0.0,0.3796791136264801,0.06285747140645981,-2.1023247241973877,-0.43218544125556946,1.2604883909225464,0.0
1898,-0.02608203887939453,-0.010622739791870117,-1.016134262084961,0.021242141723632812,-0.08041238784790039,-0.06554794311523438,-0.5987551212310791,1.4702595472335815,0.0,0.37978532910346985,0.06245540827512741,-2.1026525497436523,-0.43320798873901367,1.261509656906128,0.0
1903,-0.02510547637939453,-0.011599302291870117,-1.018331527709961,-0.039826393127441406,-0.03461122512817383,-0.06554794311523438,-0.6524009704589844,1.4121661186218262,0.0,0.37958618998527527,0.06228235363960266,-2.102980375289917,-0.4348898231983185,1.2623577117919922,0.0
1908,-0.02657032012939453,-0.007204771041870117,-1.014181137084961,0.23498249053955078,0.3012666702270508,0.13292551040649414,-0.4068843424320221,1.5006990432739258,0.0,0.38076111674308777,0.06378868967294693,-2.102315664291382,-0.43353328108787537,1.2654671669006348,0.0
1913,-0.02364063262939453,-0.005495786666870117,-1.020528793334961,0.17391395568847656,-0.416290283203125,-0.004478931427001953,-0.30846545100212097,1.3270047903060913,0.0,0.38163068890571594,0.06170723959803581,-2.1023380756378174,-0.4318232536315918,1.263816237449646,0.0
1918,-0.02339649200439453,-0.012331724166870117,-1.012960433959961,0.3571200370788574,-0.2483515739440918,0.07185697555541992,-0.6972952485084534,1.3230355978012085,0.0,0.3834162950515747,0.060465481132268906,-2.1019787788391113,-0.4318457543849945,1.2629834413528442,0.0
1924,-0.02095508575439453,-0.007937192916870117,-1.016134262084961,-0.024559497833251953,-0.5384278297424316,-0.09608221054077148,-0.44744259119033813,1.1813706159591675,0.0,0.3832935094833374,0.05777334049344063,-2.102459192276001,-0.4320732057094574,1.2597575187683105,0.0
1929,-0.02559375762939453,-0.008181333541870117,-1.012472152709961,0.08231067657470703,-0.019343852996826172,-0.4014253616333008,-0.4628235995769501,1.447994589805603,0.0,0.3837873637676239,0.05765727907419205,-2.104867696762085,-0.4317912459373474,1.2609187364578247,0.0
1934,-0.02583789825439453,-0.009890317916870117,-1.011251449584961,0.41818857192993164,-0.06514549255371094,-0.1876850128173828,-0.5601678490638733,1.4635428190231323,0.0,0.3858782947063446,0.05733155086636543,-2.1058061122894287,-0.4305848479270935,1.261968970298767,0.0
1939,-0.02241992950439453,-0.007204771041870117,-1.025167465209961,0.38765430450439453,0.20966386795043945,0.1481928825378418,-0.40256592631340027,1.2528010606765747,0.0,0.38781657814979553,0.058379869908094406,-2.105065107345581,-0.42846980690956116,1.2629480361938477,0.0
1944,-0.02364063262939453,-0.009890317916870117,-1.009786605834961,0.06704378128051758,-0.2483515739440918,0.1481928825378418,-0.5610097646713257,1.341071605682373,0.0,0.38815179467201233,0.0571381114423275,-2.1043241024017334,-0.4290349781513214,1.2622439861297607,0.0
1949,-0.01997852325439453,-0.008181333541870117,-1.014181137084961,-0.05509376525878906,-0.2483515739440918,-0.06554794311523438,-0.46210166811943054,1.1284964084625244,0.0,0.38787633180618286,0.05589635297656059,-2.104651927947998,-0.42953258752822876,1.2601045370101929,0.0
1954,-0.02071094512939453,-0.008669614791870117,-1.017843246459961,0.1281123161315918,-0.26361894607543945,-0.06554794311523438,-0.4879116117954254,1.1656441688537598,0.0,0.388516902923584,0.0545782595872879,-2.1049797534942627,-0.4292917251586914,1.2581555843353271,0.0
1959,-0.02315235137939453,-0.007448911666870117,-1.021749496459961,0.06704378128051758,-0.3399543762207031,-0.08081483840942383,-0.41759172081947327,1.298038125038147,0.0,0.3888521194458008,0.052878487855196,-2.10538387298584,-0.4288795590400696,1.2567373514175415,0.0
1964,-0.02095508575439453,-0.006472349166870117,-1.020040512084961,0.2655167579650879,0.4234042167663574,-0.27928829193115234,-0.3634709417819977,1.1768600940704346,0.0,0.39017969369888306,0.05499551072716713,-2.1067802906036377,-0.4271182119846344,1.2582993507385254,0.0
1969,-0.02657032012939453,-0.006472349166870117,-1.012960433959961,0.18918085098266602,-0.40102338790893555,-0.7220363616943359,-0.3659627139568329,1.5025138854980469,0.0,0.3911255896091461,0.052990395575761795,-2.1103904247283936,-0.42576485872268677,1.257960557937622,0.0
1974,-0.02534961700439453,-0.007204771041870117,-1.019796371459961,-0.10089540481567383,-0.18728303909301758,0.1481928825378418,-0.40465787053108215,1.4239027500152588,0.0,0.3906211256980896,0.05205398052930832,-2.109649419784546,-0.42612311244010925,1.2581532001495361,0.0
1979,-0.02217578887939453,-0.009402036666870117,-1.012472152709961,0.17391395568847656,0.11806058883666992,-0.08081483840942383,-0.5319182276725769,1.2546727657318115,0.0,0.3914906978607178,0.052644282579422,-2.110053539276123,-0.4259750545024872,1.2587159872055054,0.0
1984,-0.02681446075439453,-0.005984067916870117,-1.015645980834961,0.34185266494750977,0.08752632141113281,0.22452878952026367,-0.3374585807323456,1.5123103857040405,0.0,0.39319995045661926,0.05308191478252411,-2.108930826187134,-0.42367875576019287,1.260865569114685,0.0
1989,-0.02534961700439453,-0.008181333541870117,-1.018087387084961,0.34185266494750977,-0.019343852996826172,-0.1876850128173828,-0.4602753818035126,1.426281452178955,0.0,0.39490920305252075,0.05298519507050514,-2.1098692417144775,-0.42222848534584045,1.2618879079818726,0.0
1994,-0.02681446075439453,-0.012331724166870117,-1.014181137084961,0.09757804870605469,0.17912960052490234,-0.24875402450561523,-0.6963984370231628,1.5144081115722656,0.0,0.3953970968723297,0.05388084426522255,-2.1111130714416504,-0.42359715700149536,1.2644844055175781,0.0
1999,-0.01826953887939453,-0.008913755416870117,-1.023214340209961,-0.024559497833251953,-0.019343852996826172,-0.09608221054077148,-0.499041348695755,1.0228712558746338,0.0,0.3952743113040924,0.05378412455320358,-2.11159348487854,-0.4242289662361145,1.2627555131912231,0.0
2004,-0.02241992950439453,-0.010378599166870117,-1.018575668334961,0.3571200370788574,0.3012666702270508,0.30086469650268555,-0.5836437940597534,1.2608717679977417,0.0,0.39705991744995117,0.05529045686125755,-2.110089063644409,-0.42353251576423645,1.264238953590393,0.0
2009,-0.02339649200439453,-0.010134458541870117,-1.012960433959961,0.11284542083740234,-0.416290283203125,0.026055335998535156,-0.5730603933334351,1.3230674266815186,0.0,0.397624135017395,0.053209006786346436,-2.1099588871002197,-0.423982173204422,1.2625689506530762,0.0
2014,-0.02388477325439453,-0.013308286666870117,-1.021749496459961,0.5403261184692383,0.04172468185424805,0.1787271499633789,-0.7460315227508545,1.3390086889266968,0.0,0.4003257751464844,0.0534176304936409,-2.109065294265747,-0.4234737455844879,1.2632924318313599,0.0
2019,-0.02315235137939453,-0.012820005416870117,-1.021749496459961,0.09757804870605469,-0.20254993438720703,-0.752570629119873,-0.71867436170578,1.2979705333709717,0.0,0.40081366896629333,0.05240488052368164,-2.112828254699707,-0.42498236894607544,1.262520670890808,0.0
2024,-0.02461719512939453,-0.009890317916870117,-1.007345199584961,0.31131839752197266,0.011190414428710938,-0.17241811752319336,-0.5623555183410645,1.39983069896698,0.0,0.40237027406692505,0.05246083438396454,-2.1136903762817383,-0.4243636131286621,1.263503074645996,0.0
2029,-0.02925586700439453,-0.011111021041870117,-1.021993637084961,0.23498249053955078,-0.26361894607543945,0.10239124298095703,-0.6226348876953125,1.6396198272705078,0.0,0.40354520082473755,0.05114274099469185,-2.1131784915924072,-0.42453479766845703,1.2647323608398438,0.0
2034,-0.02168750762939453,-0.005251646041870117,-1.012960433959961,0.25024986267089844,-0.06514549255371094,-0.05028057098388672,-0.29697656631469727,1.226500153541565,0.0,0.40479645133018494,0.050817012786865234,-2.1134297847747803,-0.42243126034736633,1.264150857925415,0.0
2039,-0.02266407012939453,-0.010134458541870117,-1.019308090209961,-0.024559497833251953,-0.2483515739440918,0.20926141738891602,-0.5695030689239502,1.273685097694397,0.0,0.40467366576194763,0.04957525432109833,-2.1123833656311035,-0.4235454201698303,1.2629817724227905,0.0
2044,-0.02559375762939453,-0.011355161666870117,-1.021505355834961,0.08231067657470703,0.10279369354248047,-0.17241811752319336,-0.6366799473762512,1.4351534843444824,0.0,0.4050852060317993,0.05008922144770622,-2.1132454872131348,-0.42457425594329834,1.2646535634994507,0.0
2049,-0.02681446075439453,-0.008425474166870117,-1.021017074584961,0.021242141723632812,0.14859485626220703,0.08712387084960938,-0.47263339161872864,1.5043333768844604,0.0,0.40519142150878906,0.050832197070121765,-2.112809896469116,-0.4247928559780121,1.2670079469680786,0.0
2054,-0.02144336700439453,-0.006228208541870117,-1.016866683959961,0.03650951385498047,0.5608086585998535,-0.1571507453918457,-0.35084864497184753,1.208033800125122,0.0,0.4053739607334137,0.05363624170422554,-2.113595724105835,-0.4241129755973816,1.2693954706192017,0.0
2059,-0.02486133575439453,-0.008181333541870117,-1.022237777709961,-0.29936838150024414,-0.18728303909301758,-0.06554794311523438,-0.4584132134914398,1.393142819404602,0.0,0.4038771092891693,0.052699826657772064,-2.1139235496520996,-0.4258309602737427,1.2692996263504028,0.0
2064,-0.02705860137939453,-0.011111021041870117,-1.017354965209961,-0.11616230010986328,0.07225894927978516,0.19399404525756836,-0.6255086064338684,1.5234464406967163,0.0,0.4032962918281555,0.053061120212078094,-2.1129536628723145,-0.42775365710258484,1.2713713645935059,0.0
2069,-0.02998828887939453,-0.006472349166870117,-1.017354965209961,0.2655167579650879,-0.37048912048339844,0.026055335998535156,-0.36434903740882874,1.6883686780929565,0.0,0.4046238660812378,0.051208674907684326,-2.112823486328125,-0.42600777745246887,1.2723413705825806,0.0
2075,-0.02461719512939453,-0.009402036666870117,-1.018819808959961,0.021242141723632812,-0.12621402740478516,-0.11134910583496094,-0.5285768508911133,1.384078860282898,0.0,0.40473008155822754,0.05057760328054428,-2.113380193710327,-0.4265933036804199,1.2724673748016357,0.0
2080,-0.02510547637939453,-0.006716489791870117,-1.016622543334961,-0.22303247451782227,0.08752632141113281,-0.2640209197998047,-0.37841343879699707,1.414599895477295,0.0,0.40339189767837524,0.051102761179208755,-2.114964246749878,-0.4275969862937927,1.273949146270752,0.0
2085,-0.02315235137939453,-0.007448911666870117,-1.018819808959961,0.11284542083740234,-0.18728303909301758,-0.01974630355834961,-0.41879186034202576,1.3017692565917969,0.0,0.4039561152458191,0.05016634613275528,-2.115062952041626,-0.42697709798812866,1.2732069492340088,0.0
2090,-0.02241992950439453,-0.010622739791870117,-1.016866683959961,-0.10089540481567383,-0.15674829483032227,-0.11134910583496094,-0.5983755588531494,1.2629867792129517,0.0,0.4034516513347626,0.04938260465860367,-2.115619659423828,-0.42863550782203674,1.2723594903945923,0.0
2095,-0.02534961700439453,-0.009646177291870117,-1.011007308959961,0.4639902114868164,-0.15674829483032227,-0.08081483840942383,-0.5464795827865601,1.4362465143203735,0.0,0.4057716131210327,0.04859886318445206,-2.1160237789154053,-0.42712676525115967,1.2726874351501465,0.0
2100,-0.02119922637939453,-0.009646177291870117,-1.016134262084961,0.38765430450439453,-0.08041238784790039,-0.20295238494873047,-0.5437750220298767,1.1951130628585815,0.0,0.40770989656448364,0.04819680005311966,-2.1170384883880615,-0.4259888827800751,1.2717645168304443,0.0
2105,-0.02339649200439453,-0.011843442916870117,-1.019063949584961,0.18918085098266602,-0.12621402740478516,0.0107879638671875,-0.6656795144081116,1.3151228427886963,0.0,0.4086557924747467,0.047565728425979614,-2.1169846057891846,-0.42666682600975037,1.271430253982544,0.0
2110,-0.02510547637939453,-0.008669614791870117,-1.015890121459961,0.2655167579650879,-0.04987812042236328,-0.24875402450561523,-0.4888015687465668,1.415598750114441,0.0,0.409983366727829,0.04731633886694908,-2.1182284355163574,-0.4257674217224121,1.2721551656723022,0.0
2115,-0.02437305450439453,-0.007937192916870117,-1.016866683959961,0.021242141723632812,-0.04987812042236328,0.1481928825378418,-0.44708698987960815,1.3730052709579468,0.0,0.4100895822048187,0.04706694930791855,-2.1174874305725098,-0.4258057177066803,1.272587776184082,0.0
2120,-0.02095508575439453,-0.006472349166870117,-1.020284652709961,0.08231067657470703,-0.32468748092651367,-0.34035682678222656,-0.3633840084075928,1.1765785217285156,0.0,0.4105011224746704,0.04544351249933243,-2.1191892623901367,-0.4249759912490845,1.2703278064727783,0.0
2125,-0.02217578887939453,-0.008669614791870117,-1.019063949584961,0.18918085098266602,-0.1414813995361328,-0.05028057098388672,-0.4873126745223999,1.2465680837631226,0.0,0.41144701838493347,0.0447361059486866,-2.1194405555725098,-0.42445680499076843,1.2694649696350098,0.0
2130,-0.02339649200439453,-0.006228208541870117,-1.017110824584961,0.2655167579650879,-0.08041238784790039,0.026055335998535156,-0.3507496118545532,1.317711591720581,0.0,0.41277459263801575,0.0443340428173542,-2.1193103790283203,-0.4226412773132324,1.2693908214569092,0.0
2135,-0.02583789825439453,-0.009157896041870117,-1.016622543334961,0.3571200370788574,0.07225894927978516,0.056589603424072266,-0.5159488320350647,1.455824375152588,0.0,0.4145601987838745,0.04469533637166023,-2.1190273761749268,-0.42149659991264343,1.2710063457489014,0.0
2140,-0.02461719512939453,-0.009402036666870117,-1.021505355834961,0.5555934906005859,-0.26361894607543945,-0.20295238494873047,-0.5271881222724915,1.3804417848587036,0.0,0.41733816266059875,0.04337724298238754,-2.120042085647583,-0.4194495975971222,1.2704346179962158,0.0
2145,-0.02705860137939453,-0.007204771041870117,-1.019796371459961,0.3265857696533203,-0.09567975997924805,-0.11134910583496094,-0.40464046597480774,1.5198537111282349,0.0,0.41897109150886536,0.04289884492754936,-2.120598793029785,-0.41772788763046265,1.2716399431228638,0.0
2150,-0.02266407012939453,-0.007937192916870117,-1.017110824584961,0.11284542083740234,0.2249307632446289,-0.21821928024291992,-0.4469970762729645,1.2764599323272705,0.0,0.4195353090763092,0.04402349889278412,-2.121689796447754,-0.41736462712287903,1.272789478302002,0.0
2155,-0.02241992950439453,-0.009890317916870117,-1.016134262084961,-0.26883411407470703,0.08752632141113281,-0.2640209197998047,-0.5575224757194519,1.2639060020446777,0.0,0.418191134929657,0.04446113109588623,-2.1230099201202393,-0.41964372992515564,1.2731642723083496,0.0
2160,-0.02461719512939453,-0.007448911666870117,-1.014425277709961,0.021242141723632812,-0.019343852996826172,-0.1876850128173828,-0.4205907881259918,1.3900941610336304,0.0,0.41829735040664673,0.044364411383867264,-2.123948335647583,-0.41954460740089417,1.2738556861877441,0.0
2165,-0.02681446075439453,-0.007693052291870117,-1.019796371459961,0.021242141723632812,0.11806058883666992,-0.09608221054077148,-0.4320654571056366,1.5061416625976562,0.0,0.4184035658836365,0.04495471343398094,-2.1244287490844727,-0.4195234179496765,1.2760059833526611,0.0
2170,-0.02754688262939453,-0.008669614791870117,-1.017354965209961,0.7082653045654297,-0.1109471321105957,-0.4319601058959961,-0.4880679249763489,1.5509604215621948,0.0,0.42194488644599915,0.04439997673034668,-2.1265885829925537,-0.4164673388004303,1.2773058414459229,0.0
2175,-0.02364063262939453,-0.009646177291870117,-1.016134262084961,-0.009292125701904297,-0.06514549255371094,0.19399404525756836,-0.5437461733818054,1.3327009677886963,0.0,0.42189842462539673,0.044074248522520065,-2.1256186962127686,-0.41737011075019836,1.2773551940917969,0.0
2180,-0.02852344512939453,-0.009646177291870117,-1.018819808959961,0.11284542083740234,0.2249307632446289,0.026055335998535156,-0.5422472953796387,1.6035937070846558,0.0,0.4224626421928406,0.04519890248775482,-2.125488519668579,-0.4176500141620636,1.2806675434112549,0.0
2185,-0.02754688262939453,-0.006716489791870117,-1.023702621459961,0.2960515022277832,-0.2483515739440918,-0.03501319885253906,-0.37577489018440247,1.5413708686828613,0.0,0.423942893743515,0.043957144021987915,-2.1256635189056396,-0.41589799523353577,1.2811881303787231,0.0
2190,-0.02266407012939453,-0.008181333541870117,-1.019063949584961,-0.1772313117980957,-0.3399543762207031,0.13292551040649414,-0.4598631262779236,1.2740119695663452,0.0,0.4230567514896393,0.04225737228989601,-2.1249988079071045,-0.41707393527030945,1.2794514894485474,0.0
2195,-0.02388477325439453,-0.009646177291870117,-1.018819808959961,0.14337968826293945,0.07225894927978516,-0.5540971755981445,-0.5423107743263245,1.3429114818572998,0.0,0.4237736463546753,0.04261866584420204,-2.1277692317962646,-0.41720420122146606,1.2802371978759766,0.0
2200,-0.02241992950439453,-0.005984067916870117,-1.011251449584961,0.3265857696533203,-0.004076957702636719,-0.4014253616333008,-0.33895981311798096,1.2700445652008057,0.0,0.4254065752029419,0.04259828105568886,-2.1297762393951416,-0.4150560796260834,1.2801483869552612,0.0
2205,-0.02486133575439453,-0.009890317916870117,-1.018087387084961,0.3571200370788574,-0.019343852996826172,0.04132270812988281,-0.5564225316047668,1.3987988233566284,0.0,0.42719218134880066,0.04250156134366989,-2.1295695304870605,-0.41423299908638,1.2808501720428467,0.0
2210,-0.02364063262939453,-0.011599302291870117,-1.015645980834961,-0.07036113739013672,-0.20254993438720703,-0.004478931427001953,-0.6541474461555481,1.3333146572113037,0.0,0.4268403649330139,0.04148881137371063,-2.129591941833496,-0.4161953032016754,1.2801969051361084,0.0
