Time,Acc_low_X,Acc_low_Y,Acc_low_Z,Gyro_low_X,Gyro_low_Y,Gyro_low_Z,Acc_X,Acc_Y,Acc_Z,Gyro_X,Gyro_Y,Gyro_Z,Euler_X,Euler_Y,Euler_Z
0,-1.0028886795043945,0.003781557083129883,0.010232925415039062,-0.08562803268432617,1.079892635345459,-2.141883611679077,0.21603091061115265,89.37677001953125,0.0,-1.4298168420791626,18.032047271728516,-35.76517105102539,0.21271732449531555,89.2331314086914,0.0
5,-0.9958086013793945,-0.003054380416870117,0.009988784790039062,0.021242141723632812,0.759282112121582,-1.8365399837493896,-0.17573031783103943,89.39903259277344,0.0,-1.4297106266021729,18.035842895507812,-35.77435302734375,0.018739020451903343,89.31790161132812,0.0
10,-1.0019121170043945,-0.0011012554168701172,0.0024204254150390625,-0.1772313117980957,0.866152286529541,-1.470127820968628,-0.0629766583442688,89.84793090820312,0.0,-1.4305968284606934,18.04017448425293,-35.78170394897461,-0.00907411240041256,89.49736022949219,0.0
15,-1.0009355545043945,-0.0001246929168701172,0.0065708160400390625,-0.1466965675354004,0.40813684463500977,-0.9815783500671387,-0.007137546315789223,89.62380981445312,0.0,-1.4313303232192993,18.04221534729004,-35.78661346435547,-0.00914031732827425,89.53048706054688,0.0
20,-0.9989824295043945,0.0013401508331298828,-0.0036830902099609375,-0.2535672187805176,0.07225894927978516,-0.5235629081726074,0.076862633228302,89.77520751953125,0.0,-1.4325981140136719,18.04257583618164,-35.78923034667969,0.007043585646897554,89.5797119140625,0.0
25,-1.0070390701293945,0.0013401508331298828,0.011941909790039062,0.21971559524536133,-0.2788858413696289,0.1787271499633789,0.07624286413192749,89.31632995605469,0.0,-1.4314994812011719,18.041181564331055,-35.78833770751953,0.019493071362376213,89.5346450805664,0.0
30,-1.0028886795043945,0.0013401508331298828,0.009744644165039062,0.11284542083740234,-0.6452980041503906,0.5909409523010254,0.07656016200780869,89.43805694580078,0.0,-1.430935263633728,18.037954330444336,-35.78538131713867,0.02813146263360977,89.51807403564453,0.0
35,-1.0016679763793945,0.003537416458129883,0.008279800415039062,0.021242141723632812,-0.6758322715759277,1.5527729988098145,0.20233377814292908,89.48499298095703,0.0,-1.4308290481567383,18.034574508666992,-35.777618408203125,0.05001109838485718,89.51097869873047,0.0
40,-1.0070390701293945,0.0006077289581298828,0.009500503540039062,0.17391395568847656,-0.5536952018737793,1.995521068572998,0.03457537293434143,89.4583740234375,0.0,-1.4299595355987549,18.03180694580078,-35.76763916015625,0.04906754940748215,89.50267028808594,0.0
45,-1.0006914138793945,0.005490541458129883,0.0053501129150390625,-0.11616230010986328,-0.7827029228210449,2.453536033630371,0.3143598437309265,89.56107330322266,0.0,-1.4305403232574463,18.02789306640625,-35.75537109375,0.07510232925415039,89.50499725341797,0.0
50,-1.0006914138793945,0.002804994583129883,0.011941909790039062,0.09757804870605469,-0.6910996437072754,2.2703299522399902,0.16059145331382751,89.29767608642578,0.0,-1.430052399635315,18.024436950683594,-35.7440185546875,0.08332820236682892,89.48297882080078,0.0
55,-1.0009355545043945,0.006955385208129883,0.0041294097900390625,-0.024559497833251953,-0.7216343879699707,2.743612766265869,0.39813193678855896,89.5369873046875,0.0,-1.4301751852035522,18.020828247070312,-35.73030090332031,0.10949401557445526,89.48417663574219,0.0
60,-0.9940996170043945,0.002560853958129883,0.014627456665039062,-0.009292125701904297,-0.4773592948913574,2.4688034057617188,0.14758069813251495,89.14417266845703,0.0,-1.430221676826477,18.018442153930664,-35.71795654296875,0.11238693445920944,89.45576477050781,0.0
65,-0.9948320388793945,0.006711244583129883,0.010721206665039062,0.18918085098266602,-0.9048399925231934,2.102391242980957,0.3864952325820923,89.27156829833984,0.0,-1.4292757511138916,18.013917922973633,-35.70744323730469,0.13289231061935425,89.4383773803711,0.0
70,-1.0043535232543945,0.002316713333129883,0.008768081665039062,0.021242141723632812,-0.3399543762207031,1.568039894104004,0.13215725123882294,89.48265075683594,0.0,-1.4291695356369019,18.012218475341797,-35.69960403442383,0.13294227421283722,89.43975067138672,0.0
75,-0.9987382888793945,0.003293275833129883,0.012918472290039062,-0.1466965675354004,-0.4773592948913574,0.819948673248291,0.18891268968582153,89.23523712158203,0.0,-1.4299030303955078,18.00983238220215,-35.69550323486328,0.13576453924179077,89.42469024658203,0.0
80,-0.9980058670043945,0.012082338333129883,0.012674331665039062,-0.11616230010986328,-0.32468748092651367,0.4840707778930664,0.6935604214668274,88.99481201171875,0.0,-1.4304838180541992,18.008209228515625,-35.693084716796875,0.16815385222434998,89.39778137207031,0.0
85,-1.0028886795043945,0.008664369583129883,0.008279800415039062,0.20444822311401367,-0.03461122512817383,-0.4319601058959961,0.49497273564338684,89.31535339355469,0.0,-1.4294615983963013,18.00803565979004,-35.69524383544922,0.18735356628894806,89.39301300048828,0.0
90,-0.9975175857543945,0.008176088333129883,0.0060825347900390625,-0.39097166061401367,0.2249307632446289,-1.180051565170288,0.46960189938545227,89.4146957397461,0.0,-1.4314165115356445,18.0091609954834,-35.70114517211914,0.20042890310287476,89.39522552490234,0.0
95,-1.0033769607543945,0.008420228958129883,0.008035659790039062,0.021242141723632812,-0.20254993438720703,-1.1342499256134033,0.48079317808151245,89.33539581298828,0.0,-1.4313102960586548,18.008148193359375,-35.706817626953125,0.21462342143058777,89.39125061035156,0.0
100,-0.9992265701293945,0.004269838333129883,0.008035659790039062,0.18918085098266602,0.27073240280151367,-1.790738582611084,0.2448236644268036,89.47824096679688,0.0,-1.4303643703460693,18.009502410888672,-35.71577072143555,0.21697071194648743,89.3967056274414,0.0
105,-0.9948320388793945,0.005490541458129883,0.008035659790039062,-0.10089540481567383,0.7440147399902344,-2.187685251235962,0.31620553135871887,89.43949890136719,0.0,-1.4308688640594482,18.013221740722656,-35.726707458496094,0.22102969884872437,89.40221405029297,0.0
110,-0.9977617263793945,0.003293275833129883,0.0077915191650390625,0.1586465835571289,0.7440147399902344,-2.645700454711914,0.18910764157772064,89.51426696777344,0.0,-1.4300756454467773,18.01694107055664,-35.73993682861328,0.22039024531841278,89.41068267822266,0.0
115,-0.9992265701293945,0.005978822708129883,0.009500503540039062,0.09757804870605469,0.8966865539550781,-2.4930286407470703,0.342806875705719,89.35636901855469,0.0,-1.429587721824646,18.021425247192383,-35.752403259277344,0.2259986847639084,89.4126968383789,0.0
120,-1.0002031326293945,0.0015842914581298828,0.008523941040039062,0.18918085098266602,0.8203506469726562,-2.2640209197998047,0.09075140953063965,89.50336456298828,0.0,-1.4286417961120605,18.02552604675293,-35.76372146606445,0.22144994139671326,89.42029571533203,0.0
126,-1.0033769607543945,-0.0003688335418701172,0.0043735504150390625,0.09757804870605469,0.7745490074157715,-2.1724178791046143,-0.021061280742287636,89.74937438964844,0.0,-1.4280563592910767,18.030174255371094,-35.776756286621094,0.21259374916553497,89.43754577636719,0.0
131,-1.0043535232543945,0.003049135208129883,0.0070590972900390625,-0.08562803268432617,0.9424881935119629,-1.2258529663085938,0.1739404797554016,89.56134033203125,0.0,-1.4284844398498535,18.034887313842773,-35.78288650512695,0.21073490381240845,89.44671630859375,0.0
136,-1.0021562576293945,0.004513978958129883,0.0036411285400390625,-0.39097166061401367,0.026457786560058594,-0.8441736698150635,0.25807201862335205,89.6684341430664,0.0,-1.4304393529891968,18.035018920898438,-35.787105560302734,0.21056044101715088,89.45484924316406,0.0
141,-1.0002031326293945,-0.002810239791870117,0.0004673004150390625,0.23498249053955078,0.17912960052490234,-0.27928829193115234,-0.16098174452781677,89.83680725097656,0.0,-1.4292644262313843,18.03591537475586,-35.78850173950195,0.19872698187828064,89.46903991699219,0.0
146,-1.0009355545043945,-0.0003688335418701172,0.0033969879150390625,-0.11616230010986328,-0.3552217483520508,0.1787271499633789,-0.021112730726599693,89.80440521240234,0.0,-1.4298452138900757,18.03413963317871,-35.7876091003418,0.19074268639087677,89.47864532470703,0.0
151,-0.9916582107543945,0.0013401508331298828,0.0055942535400390625,0.005974769592285156,-0.5536952018737793,0.49933767318725586,0.0774296224117279,89.66763305664062,0.0,-1.4298152923583984,18.0313720703125,-35.78511428833008,0.1870657205581665,89.48214721679688,0.0
156,-1.0043535232543945,0.002316713333129883,0.011697769165039062,-0.009292125701904297,-0.5994963645935059,0.8810172080993652,0.13215333223342896,89.31974029541016,0.0,-1.4298617839813232,18.02837371826172,-35.78070831298828,0.18527942895889282,89.47409057617188,0.0
161,-0.9977617263793945,0.0015842914581298828,-0.0019741058349609375,0.28078413009643555,-0.6452980041503906,1.7665133476257324,0.09097658842802048,89.85464477539062,0.0,-1.4284578561782837,18.025146484375,-35.77187728881836,0.18373772501945496,89.48267364501953,0.0
166,-1.0021562576293945,-0.0011012554168701172,0.0046176910400390625,0.14337968826293945,-0.8437714576721191,1.9039177894592285,-0.06296083331108093,89.72859191894531,0.0,-1.4277409315109253,18.02092742919922,-35.76235580444336,0.17705677449703217,89.48593139648438,0.0
171,-1.0028886795043945,0.0008518695831298828,0.009012222290039062,0.08231067657470703,-0.9964432716369629,2.4077348709106445,0.04866597056388855,89.48284149169922,0.0,-1.427329421043396,18.015945434570312,-35.75031661987305,0.1737234890460968,89.48100280761719,0.0
176,-1.0011796951293945,0.002072572708129883,0.0014438629150390625,-0.2841014862060547,-0.706367015838623,2.041322708129883,0.11860945075750351,89.8554458618164,0.0,-1.428749918937683,18.012413024902344,-35.740108489990234,0.17078372836112976,89.48816680908203,0.0
181,-0.9980058670043945,0.003781557083129883,0.014383316040039062,0.08231067657470703,-0.7979702949523926,2.026055335998535,0.2170765995979309,89.14624786376953,0.0,-1.4283384084701538,18.0084228515625,-35.729976654052734,0.1724596917629242,89.47486114501953,0.0
186,-1.0026445388793945,0.008420228958129883,0.0077915191650390625,-0.039826393127441406,-0.40102338790893555,1.8428492546081543,0.4811452627182007,89.3444595336914,0.0,-1.4285374879837036,18.006418228149414,-35.72076416015625,0.18055760860443115,89.46940612792969,0.0
191,-0.9992265701293945,0.004758119583129883,0.0073032379150390625,0.17391395568847656,-0.08041238784790039,1.354299545288086,0.272821843624115,89.50020599365234,0.0,-1.4276679754257202,18.00601577758789,-35.713993072509766,0.18382179737091064,89.46981811523438,0.0
196,-0.9975175857543945,0.005002260208129883,0.013162612915039062,0.1586465835571289,-0.1414813995361328,1.033689022064209,0.2872942388057709,89.1912612915039,0.0,-1.4268747568130493,18.005308151245117,-35.708824157714844,0.18724095821380615,89.46200561523438,0.0
201,-1.0016679763793945,0.008420228958129883,0.011941909790039062,0.23498249053955078,0.1943964958190918,0.3466658592224121,0.48159465193748474,89.16425323486328,0.0,-1.4256998300552368,18.00628089904785,-35.70709228515625,0.19573906064033508,89.45551300048828,0.0
206,-0.9965410232543945,0.0006077289581298828,0.008035659790039062,0.021242141723632812,-0.04987812042236328,0.27032995223999023,0.034940026700496674,89.53668212890625,0.0,-1.425593614578247,18.006031036376953,-35.70574188232422,0.19191722571849823,89.4572525024414,0.0
211,-1.0014238357543945,0.005490541458129883,0.011209487915039062,0.005974769592285156,0.07225894927978516,-0.7220363616943359,0.3141147494316101,89.285888671875,0.0,-1.4255636930465698,18.006391525268555,-35.7093505859375,0.19486358761787415,89.4535140991211,0.0
216,-1.0021562576293945,0.008176088333129883,0.0055942535400390625,-0.3146357536315918,0.3928699493408203,-0.9205095767974854,0.4674297571182251,89.43362426757812,0.0,-1.4271368980407715,18.00835609436035,-35.71395492553711,0.19969390332698822,89.45496368408203,0.0
221,-0.9999589920043945,0.008176088333129883,0.0073032379150390625,0.08231067657470703,0.4692058563232422,-1.1647844314575195,0.4684516191482544,89.37187194824219,0.0,-1.4267253875732422,18.01070213317871,-35.71977996826172,0.20624195039272308,89.45535278320312,0.0
226,-1.0006914138793945,0.004758119583129883,0.012918472290039062,0.1281123161315918,0.6829462051391602,-1.6380667686462402,0.27240705490112305,89.2118148803711,0.0,-1.4260848760604858,18.014116287231445,-35.727970123291016,0.20835019648075104,89.45323944091797,0.0
231,-1.0004472732543945,0.005002260208129883,0.014871597290039062,-0.009292125701904297,0.28599977493286133,-2.035013437271118,0.2864462435245514,89.10148620605469,0.0,-1.4261313676834106,18.015546798706055,-35.73814392089844,0.21001902222633362,89.44691467285156,0.0
236,-1.0024003982543945,0.002072572708129883,0.013650894165039062,-0.11616230010986328,0.2249307632446289,-1.8518073558807373,0.11845415085554123,89.21084594726562,0.0,-1.426712155342102,18.016672134399414,-35.74740219116211,0.2074800580739975,89.44293212890625,0.0
241,-0.9972734451293945,0.0008518695831298828,0.008523941040039062,-0.08562803268432617,0.45393848419189453,-1.897608757019043,0.04894017428159714,89.50785064697266,0.0,-1.427140235900879,18.01894187927246,-35.75688934326172,0.2037140130996704,89.44651794433594,0.0
246,-1.0024003982543945,0.0013401508331298828,0.016580581665039062,0.021242141723632812,0.9424881935119629,-1.6686012744903564,0.07659059017896652,89.04927062988281,0.0,-1.4270340204238892,18.02365493774414,-35.76523208618164,0.20118437707424164,89.44290161132812,0.0
251,-0.9987382888793945,0.0015842914581298828,0.011453628540039062,-0.2535672187805176,0.40813684463500977,-1.042646884918213,0.0908818393945694,89.33670043945312,0.0,-1.4283018112182617,18.02569580078125,-35.77044677734375,0.19769884645938873,89.44273376464844,0.0
256,-1.0016679763793945,0.004269838333129883,0.0011997222900390625,0.08231067657470703,0.3318009376525879,-1.2105858325958252,0.24423468112945557,89.74630737304688,0.0,-1.4278903007507324,18.027355194091797,-35.7765007019043,0.19903181493282318,89.45042419433594,0.0
261,-0.9975175857543945,0.0010960102081298828,0.0068149566650390625,0.2960515022277832,0.08752632141113281,-0.30982255935668945,0.06295154243707657,89.6035385131836,0.0,-1.4264100790023804,18.02779197692871,-35.77804946899414,0.197812020778656,89.453857421875,0.0
266,-1.0004472732543945,0.002316713333129883,0.008523941040039062,-0.13142967224121094,0.1943964958190918,0.1787271499633789,0.1326735019683838,89.49413299560547,0.0,-1.4270672798156738,18.028764724731445,-35.777156829833984,0.19591084122657776,89.45558166503906,0.0
272,-1.0058183670043945,-0.0011012554168701172,-0.0022182464599609375,0.3723874092102051,-0.004076957702636719,0.6978111267089844,-0.06273210793733597,89.85892486572266,0.0,-1.4252053499221802,18.028743743896484,-35.77366638183594,0.19283083081245422,89.46321105957031,0.0
277,-0.9992265701293945,0.003049135208129883,0.0036411285400390625,-0.23829984664916992,-0.7521681785583496,1.0489559173583984,0.17483609914779663,89.7276840209961,0.0,-1.4266351461410522,18.02423095703125,-35.767372131347656,0.1910916119813919,89.4637222290039,0.0
282,-0.9992265701293945,0.003049135208129883,0.008035659790039062,0.09757804870605469,-0.8743062019348145,0.9878873825073242,0.17483161389827728,89.50718688964844,0.0,-1.426147222518921,18.019859313964844,-35.76243209838867,0.19127169251441956,89.4602279663086,0.0
287,-1.0036211013793945,0.0013401508331298828,0.008768081665039062,0.5708608627319336,-0.4926261901855469,1.5222387313842773,0.07650497555732727,89.49363708496094,0.0,-1.423292875289917,18.017396926879883,-35.75482177734375,0.1919981688261032,89.45841217041016,0.0
292,-0.9997148513793945,0.002560853958129883,0.0060825347900390625,0.21971559524536133,-0.8132367134094238,1.568039894104004,0.14676493406295776,89.62176513671875,0.0,-1.422194242477417,18.013330459594727,-35.74698257446289,0.19227148592472076,89.45732879638672,0.0
297,-1.0009355545043945,0.003293275833129883,0.009500503540039062,0.5708608627319336,-0.6605653762817383,1.78178071975708,0.18850526213645935,89.42444610595703,0.0,-1.419339895248413,18.010026931762695,-35.738075256347656,0.19500964879989624,89.45350646972656,0.0
302,-1.0045976638793945,0.003781557083129883,0.017801284790039062,-0.024559497833251953,-0.46209192276000977,1.6901774406433105,0.21564078330993652,88.96218872070312,0.0,-1.4194626808166504,18.00771713256836,-35.7296257019043,0.19524554908275604,89.44274139404297,0.0
307,-1.0016679763793945,0.003781557083129883,0.0026645660400390625,-0.29936838150024414,-0.32468748092651367,1.5069713592529297,0.21630467474460602,89.73538970947266,0.0,-1.42095947265625,18.006093978881836,-35.72209167480469,0.19413290917873383,89.44612884521484,0.0
312,-0.9987382888793945,0.005490541458129883,0.010477066040039062,-0.05509376525878906,-0.2483515739440918,1.4306354522705078,0.3149617612361908,89.32144927978516,0.0,-1.4212349653244019,18.004852294921875,-35.71493911743164,0.1958908587694168,89.44281005859375,0.0
317,-1.0002031326293945,0.008420228958129883,0.012918472290039062,-0.1772313117980957,-0.40102338790893555,1.247429370880127,0.4822939932346344,89.11672973632812,0.0,-1.4221211671829224,18.00284767150879,-35.708702087402344,0.19976115226745605,89.43544006347656,0.0
322,-0.9980058670043945,0.002804994583129883,0.009744644165039062,-0.4215059280395508,-0.004076957702636719,0.4840707778930664,0.16102737188339233,89.41786193847656,0.0,-1.4242286682128906,18.002826690673828,-35.70628356933594,0.19705553352832794,89.43512725830078,0.0
327,-1.0043535232543945,0.007931947708129883,0.0070590972900390625,0.005974769592285156,-0.17201566696166992,0.30086469650268555,0.4524765908718109,89.39427947998047,0.0,-1.4241987466812134,18.00196647644043,-35.70478057861328,0.20119984447956085,89.43362426757812,0.0
332,-1.0048418045043945,0.006222963333129883,0.012674331665039062,0.09757804870605469,0.45393848419189453,-0.2640209197998047,0.3547987639904022,89.19495391845703,0.0,-1.423710823059082,18.004236221313477,-35.70610046386719,0.2041218876838684,89.43206024169922,0.0
337,-0.9982500076293945,0.003293275833129883,0.0073032379150390625,0.09757804870605469,0.31653404235839844,-0.8289065361022949,0.18901585042476654,89.5401840209961,0.0,-1.4232228994369507,18.00581932067871,-35.710243225097656,0.204365074634552,89.43531036376953,0.0
342,-1.0004472732543945,0.003537416458129883,0.012918472290039062,-0.22303247451782227,-0.04987812042236328,-0.7831048965454102,0.20257069170475006,89.23296356201172,0.0,-1.4243381023406982,18.005569458007812,-35.71415710449219,0.20323939621448517,89.43193054199219,0.0
347,-1.0009355545043945,0.008420228958129883,0.012430191040039062,-0.23829984664916992,0.28599977493286133,-1.393791913986206,0.48194411396980286,89.1406478881836,0.0,-1.4255295991897583,18.006999969482422,-35.721126556396484,0.20633019506931305,89.42887878417969,0.0
352,-0.9926347732543945,0.005246400833129883,0.011209487915039062,-0.1466965675354004,0.40813684463500977,-1.393791913986206,0.3028048872947693,89.28565216064453,0.0,-1.4262630939483643,18.00904083251953,-35.72809600830078,0.20706574618816376,89.42871856689453,0.0
357,-1.0041093826293945,0.002560853958129883,0.010232925415039062,0.38765430450439453,0.6676788330078125,-1.5464637279510498,0.14611773192882538,89.39810943603516,0.0,-1.424324870109558,18.012378692626953,-35.7358283996582,0.20806510746479034,89.43155670166016,0.0
362,-0.9997148513793945,0.002804994583129883,0.010477066040039062,-0.05509376525878906,0.27073240280151367,-1.073181390762329,0.16075094044208527,89.37841033935547,0.0,-1.42460036277771,18.01373291015625,-35.74119567871094,0.20709563791751862,89.4321060180664,0.0
367,-0.9945878982543945,0.003293275833129883,0.0024204254150390625,0.06704378128051758,0.5608086585998535,-1.149517297744751,0.18971632421016693,89.76455688476562,0.0,-1.4242651462554932,18.016536712646484,-35.746944427490234,0.20717252790927887,89.4397201538086,0.0
372,-1.0016679763793945,0.003781557083129883,0.0036411285400390625,0.14337968826293945,0.5913429260253906,-0.7067689895629883,0.2163040041923523,89.69972229003906,0.0,-1.4235482215881348,18.019493103027344,-35.7504768371582,0.208010733127594,89.4463882446289,0.0
377,-1.0019121170043945,0.00011944770812988281,0.0041294097900390625,0.17391395568847656,0.4997401237487793,-0.7373032569885254,0.0068307300098240376,89.76375579833984,0.0,-1.4226787090301514,18.021991729736328,-35.7541618347168,0.2060002088546753,89.45337677001953,0.0
382,-0.9970293045043945,0.003537416458129883,0.0046176910400390625,-0.13142967224121094,-0.03461122512817383,-0.7220363616943359,0.20327989757061005,89.66572570800781,0.0,-1.4233359098434448,18.021818161010742,-35.75777053833008,0.20531398057937622,89.4561996459961,0.0
387,-1.0016679763793945,0.002804994583129883,0.0004673004150390625,0.20444822311401367,0.13332796096801758,-0.2945551872253418,0.16044628620147705,89.83734130859375,0.0,-1.4223136901855469,18.022485733032227,-35.75924301147461,0.20569629967212677,89.46216583251953,0.0
392,-1.0011796951293945,0.0015842914581298828,0.0053501129150390625,0.2960515022277832,-0.23308420181274414,0.1481928825378418,0.09066488593816757,89.6806869506836,0.0,-1.4208334684371948,18.021320343017578,-35.75850296020508,0.20556916296482086,89.46402740478516,0.0
397,-1.0014238357543945,0.002804994583129883,0.011941909790039062,-0.11616230010986328,-0.1109471321105957,0.6214752197265625,0.1604740172624588,89.2981948852539,0.0,-1.4214142560958862,18.02076530456543,-35.755393981933594,0.20438066124916077,89.46121215820312,0.0
402,-1.0028886795043945,0.002804994583129883,0.0009555816650390625,0.021242141723632812,-0.2178173065185547,0.6672768592834473,0.1602509468793869,89.83070373535156,0.0,-1.4213080406188965,18.019676208496094,-35.75205612182617,0.20388920605182648,89.46512603759766,0.0
407,-0.9980058670043945,0.002560853958129883,0.009012222290039062,-0.05509376525878906,-0.6147637367248535,0.8962841033935547,0.14701297879219055,89.46214294433594,0.0,-1.4215835332870483,18.0166015625,-35.74757385253906,0.20285676419734955,89.46205139160156,0.0
412,-0.9958086013793945,0.003537416458129883,-0.0009975433349609375,0.03650951385498047,-0.6147637367248535,0.9420857429504395,0.2035311609506607,89.78852844238281,0.0,-1.421401023864746,18.013526916503906,-35.742862701416016,0.2030458301305771,89.46334075927734,0.0
418,-1.0028886795043945,0.005246400833129883,0.008523941040039062,-0.10089540481567383,-0.29415321350097656,0.819948673248291,0.2997172474861145,89.42819213867188,0.0,-1.421905517578125,18.012056350708008,-35.73876190185547,0.20381543040275574,89.46142578125,0.0
423,-0.9972734451293945,0.0010960102081298828,0.0065708160400390625,0.23498249053955078,-0.32468748092651367,1.3695669174194336,0.06296705454587936,89.61727905273438,0.0,-1.420495629310608,18.010108947753906,-35.73054504394531,0.2033754289150238,89.46153259277344,0.0
428,-1.0002031326293945,0.005490541458129883,0.010477066040039062,-0.009292125701904297,-0.416290283203125,1.0031547546386719,0.3145005404949188,89.32244110107422,0.0,-1.4205421209335327,18.008028030395508,-35.725528717041016,0.2047608643770218,89.45768737792969,0.0
433,-1.0055742263793945,0.005002260208129883,0.010721206665039062,-0.46730756759643555,-0.18728303909301758,1.2016277313232422,0.28500109910964966,89.32593536376953,0.0,-1.422878623008728,18.007091522216797,-35.719520568847656,0.20347797870635986,89.455078125,0.0
438,-0.9967851638793945,0.005978822708129883,0.0053501129150390625,0.08231067657470703,-0.40102338790893555,1.0794906616210938,0.34365707635879517,89.5388412475586,0.0,-1.4224671125411987,18.00508689880371,-35.7141227722168,0.205656498670578,89.45415496826172,0.0
443,-0.9987382888793945,0.006222963333129883,0.0053501129150390625,-0.07036113739013672,-0.03461122512817383,0.8810172080993652,0.3569902181625366,89.52921295166016,0.0,-1.422818899154663,18.004913330078125,-35.709716796875,0.20720496773719788,89.45492553710938,0.0
448,-1.0075273513793945,0.005490541458129883,0.011453628540039062,0.2655167579650879,-0.004076957702636719,0.5146050453186035,0.312211275100708,89.27772521972656,0.0,-1.421491265296936,18.004892349243164,-35.7071418762207,0.20981983840465546,89.45270538330078,0.0
453,-0.9984941482543945,0.003537416458129883,0.0051059722900390625,-0.2841014862060547,-0.08041238784790039,0.33139896392822266,0.20298118889331818,89.64356994628906,0.0,-1.4229117631912231,18.00448989868164,-35.70548629760742,0.20833264291286469,89.45465850830078,0.0
458,-0.9975175857543945,0.002804994583129883,-2.09808349609375e-05,0.21971559524536133,-0.15674829483032227,0.1787271499633789,0.16111387312412262,89.83888244628906,0.0,-1.4218131303787231,18.003705978393555,-35.704593658447266,0.2088416963815689,89.45857238769531,0.0
463,-1.0036211013793945,0.009152650833129883,0.0060825347900390625,-0.2077655792236328,0.07225894927978516,0.16345977783203125,0.5224921107292175,89.37265014648438,0.0,-1.4228519201278687,18.004066467285156,-35.70377731323242,0.21160972118377686,89.4578857421875,0.0
468,-0.9955644607543945,0.002316713333129883,0.0051059722900390625,-0.2077655792236328,-0.019343852996826172,-0.5693645477294922,0.13332729041576385,89.67731475830078,0.0,-1.4238907098770142,18.003969192504883,-35.70662307739258,0.20964427292346954,89.46041870117188,0.0
473,-1.0026445388793945,0.004025697708129883,0.008279800415039062,-0.2841014862060547,0.04172468185424805,-0.2945551872253418,0.23003804683685303,89.47390747070312,0.0,-1.4253112077713013,18.00417709350586,-35.70809555053711,0.20848329365253448,89.46078491210938,0.0
478,-1.0072832107543945,0.0015842914581298828,0.012430191040039062,-0.1466965675354004,0.31653404235839844,-0.4624943733215332,0.0901099368929863,89.28726959228516,0.0,-1.4260447025299072,18.005760192871094,-35.71040725708008,0.2063615769147873,89.46029663085938,0.0
483,-0.9977617263793945,0.005490541458129883,0.009256362915039062,0.09757804870605469,-0.06514549255371094,-0.7831048965454102,0.31527382135391235,89.38201141357422,0.0,-1.4255567789077759,18.005434036254883,-35.71432113647461,0.208118736743927,89.45905303955078,0.0
488,-1.0004472732543945,0.003537416458129883,0.011453628540039062,0.17391395568847656,0.5913429260253906,-1.0273797512054443,0.20257429778575897,89.31350708007812,0.0,-1.4246872663497925,18.008390426635742,-35.719459533691406,0.20891381800174713,89.46028900146484,0.0
493,-1.0036211013793945,0.004513978958129883,0.013406753540039062,0.1281123161315918,0.4234042167663574,-0.7373032569885254,0.25767406821250916,89.19245910644531,0.0,-1.4240467548370361,18.010507583618164,-35.72314453125,0.2101089358329773,89.45928955078125,0.0
498,-0.9962968826293945,0.003781557083129883,0.0026645660400390625,-0.10089540481567383,0.1638622283935547,-0.37089109420776367,0.21747076511383057,89.73396301269531,0.0,-1.424551248550415,18.011327743530273,-35.724998474121094,0.20969441533088684,89.46324157714844,0.0
503,-1.0043535232543945,0.002072572708129883,0.009012222290039062,0.1586465835571289,0.255465030670166,-0.09608221054077148,0.11823000013828278,89.47247314453125,0.0,-1.4237580299377441,18.012605667114258,-35.72547912597656,0.2094404548406601,89.46460723876953,0.0
508,-1.0021562576293945,0.0013401508331298828,0.017313003540039062,-0.05509376525878906,0.31653404235839844,0.10239124298095703,0.07660830020904541,89.00730895996094,0.0,-1.424033522605896,18.014188766479492,-35.72496795654297,0.20767149329185486,89.46101379394531,0.0
513,-0.9984941482543945,0.002316713333129883,0.013895034790039062,-0.05509376525878906,0.14859485626220703,-0.27928829193115234,0.13292497396469116,89.19171905517578,0.0,-1.4243090152740479,18.01493263244629,-35.72636413574219,0.2065630853176117,89.45873260498047,0.0
518,-1.0024003982543945,0.002316713333129883,0.008035659790039062,0.3265857696533203,-0.37048912048339844,-0.1266164779663086,0.1324155479669571,89.5219955444336,0.0,-1.4226760864257812,18.013080596923828,-35.72699737548828,0.20735450088977814,89.45760345458984,0.0
523,-1.0019121170043945,0.002072572708129883,0.0043735504150390625,-0.13142967224121094,-0.06514549255371094,0.04132270812988281,0.11852174252271652,89.72322845458984,0.0,-1.4233332872390747,18.012754440307617,-35.72679138183594,0.20572513341903687,89.460205078125,0.0
528,-0.9970293045043945,0.004513978958129883,0.012186050415039062,0.03650951385498047,-0.2483515739440918,0.529871940612793,0.25938141345977783,89.25325012207031,0.0,-1.4231507778167725,18.011512756347656,-35.72414016723633,0.20649318397045135,89.45671081542969,0.0
533,-1.0070390701293945,0.005246400833129883,0.011697769165039062,0.09757804870605469,-0.26361894607543945,0.2855973243713379,0.29847267270088196,89.27062225341797,0.0,-1.4226628541946411,18.010194778442383,-35.722713470458984,0.20797596871852875,89.45338439941406,0.0
538,-0.9999589920043945,-0.004763364791870117,0.0058383941650390625,-0.36043739318847656,-0.23308420181274414,0.6520094871520996,-0.27292516827583313,89.56826782226562,0.0,-1.4244650602340698,18.009029388427734,-35.719451904296875,0.2009991705417633,89.4534683227539,0.0
543,-1.0011796951293945,0.005978822708129883,0.014139175415039062,-0.2841014862060547,-0.4773592948913574,0.5146050453186035,0.3421194851398468,89.12154388427734,0.0,-1.425885558128357,18.006643295288086,-35.71687698364258,0.2011079490184784,89.44754791259766,0.0
548,-1.0028886795043945,0.0003635883331298828,0.0073032379150390625,-0.024559497833251953,0.1943964958190918,0.7130780220031738,0.02077152207493782,89.5822525024414,0.0,-1.4260083436965942,18.00761604309082,-35.71331024169922,0.19906435906887054,89.44994354248047,0.0
553,-0.9970293045043945,0.002072572708129883,0.011697769165039062,-0.009292125701904297,-0.6300311088562012,0.7130780220031738,0.11909512430429459,89.31732940673828,0.0,-1.426054835319519,18.004465103149414,-35.70974349975586,0.19817155599594116,89.44541931152344,0.0
558,-0.9960527420043945,0.002072572708129883,0.008523941040039062,0.03650951385498047,-0.3857560157775879,0.423001766204834,0.11921572685241699,89.49540710449219,0.0,-1.4258723258972168,18.00253677368164,-35.7076301574707,0.1975214183330536,89.44403839111328,0.0
563,-1.0014238357543945,0.0018284320831298828,0.009988784790039062,-0.08562803268432617,0.2249307632446289,0.43826913833618164,0.10460717231035233,89.41902160644531,0.0,-1.4263004064559937,18.003662109375,-35.705440521240234,0.19612623751163483,89.44488525390625,0.0
569,-1.0021562576293945,0.004758119583129883,0.008768081665039062,-0.039826393127441406,0.255465030670166,0.6214752197265625,0.2720211446285248,89.42967224121094,0.0,-1.4264994859695435,18.004940032958984,-35.70233154296875,0.19671781361103058,89.44599151611328,0.0
574,-1.0014238357543945,0.005734682083129883,0.011697769165039062,-0.16196393966674805,-0.12621402740478516,0.056589603424072266,0.3280799388885498,89.2546615600586,0.0,-1.4274712800979614,18.004182815551758,-35.70199203491211,0.19711531698703766,89.44326782226562,0.0
579,-1.0055742263793945,0.005490541458129883,0.009500503540039062,-0.10089540481567383,0.011190414428710938,0.20926141738891602,0.31282395124435425,89.37480926513672,0.0,-1.4279757738113403,18.00423812866211,-35.70094680786133,0.19780606031417847,89.44261932373047,0.0
584,-0.9967851638793945,0.0006077289581298828,0.0048618316650390625,0.17391395568847656,0.0569920539855957,0.08712387084960938,0.03493218868970871,89.71836853027344,0.0,-1.427106261253357,18.0045223236084,-35.70051193237305,0.1970015913248062,89.44571685791016,0.0
589,-1.0014238357543945,0.004758119583129883,0.010477066040039062,0.4029216766357422,-0.2483515739440918,-0.1876850128173828,0.2722156047821045,89.34166717529297,0.0,-1.4250916242599487,18.003280639648438,-35.70145034790039,0.19976016879081726,89.44342803955078,0.0
594,-1.0019121170043945,0.007199525833129883,0.008279800415039062,-0.08562803268432617,-0.08041238784790039,-0.38615846633911133,0.4116940498352051,89.37256622314453,0.0,-1.4255197048187256,18.002878189086914,-35.7033805847168,0.20147794485092163,89.44231414794922,0.0
599,-0.9980058670043945,0.003781557083129883,0.011209487915039062,0.05177640914916992,-0.2178173065185547,-0.37089109420776367,0.21708545088768005,89.32086181640625,0.0,-1.4252607822418213,18.001789093017578,-35.70523452758789,0.20189103484153748,89.44001007080078,0.0
604,-1.0033769607543945,0.0006077289581298828,0.0077915191650390625,0.18918085098266602,0.34706830978393555,-0.38615846633911133,0.03470206260681152,89.55374145507812,0.0,-1.4243148565292358,18.003524780273438,-35.7071647644043,0.2011571079492569,89.44286346435547,0.0
609,-1.0024003982543945,0.006711244583129883,0.0060825347900390625,0.021242141723632812,0.1943964958190918,-0.47776126861572266,0.3835923969745636,89.4822998046875,0.0,-1.424208641052246,18.004497528076172,-35.70955276489258,0.20307490229606628,89.4442138671875,0.0
614,-0.9967851638793945,0.007443666458129883,0.010965347290039062,-0.1466965675354004,0.2249307632446289,-0.4930286407470703,0.42783236503601074,89.23824310302734,0.0,-1.424942135810852,18.00562286376953,-35.71201705932617,0.20456963777542114,89.44329071044922,0.0
619,-0.9989824295043945,0.002560853958129883,0.0033969879150390625,-0.16196393966674805,0.37760257720947266,-0.44722700119018555,0.14687441289424896,89.75601196289062,0.0,-1.4257519245147705,18.007511138916016,-35.71425247192383,0.20320072770118713,89.44822692871094,0.0
624,-1.0002031326293945,0.002316713333129883,0.009012222290039062,0.4945244789123535,0.3928699493408203,-0.38615846633911133,0.13270531594753265,89.46697235107422,0.0,-1.4232792854309082,18.009475708007812,-35.716182708740234,0.20495998859405518,89.45035552978516,0.0
629,-1.0011796951293945,0.006467103958129883,0.009500503540039062,0.23498249053955078,0.11806058883666992,-0.17241811752319336,0.3700793385505676,89.34231567382812,0.0,-1.4221043586730957,18.01006507873535,-35.717044830322266,0.207729309797287,89.44989013671875,0.0
634,-1.0009355545043945,0.008176088333129883,0.008035659790039062,-0.07036113739013672,0.11806058883666992,-0.1571507453918457,0.46799200773239136,89.34381103515625,0.0,-1.42245614528656,18.01065444946289,-35.717830657958984,0.20989902317523956,89.44944763183594,0.0
639,-1.0041093826293945,-0.0011012554168701172,0.010721206665039062,-0.13142967224121094,-0.1109471321105957,0.07185697555541992,-0.0628354474902153,89.38504028320312,0.0,-1.4231133460998535,18.010099411010742,-35.717472076416016,0.20662282407283783,89.44827270507812,0.0
644,-1.0014238357543945,0.006711244583129883,0.009256362915039062,-0.22303247451782227,0.2249307632446289,-0.17241811752319336,0.3839571177959442,89.34587860107422,0.0,-1.424228549003601,18.0112247467041,-35.71833419799805,0.20721684396266937,89.44840240478516,0.0
649,-1.0009355545043945,0.004025697708129883,0.0060825347900390625,0.20444822311401367,-0.37048912048339844,0.22452878952026367,0.23043440282344818,89.58248138427734,0.0,-1.4232063293457031,18.00937271118164,-35.71721267700195,0.20845061540603638,89.44784545898438,0.0
654,-1.0014238357543945,0.003049135208129883,0.016580581665039062,0.1281123161315918,-0.6758322715759277,0.36193323135375977,0.1744297444820404,89.03553771972656,0.0,-1.4225658178329468,18.005992889404297,-35.71540451049805,0.20876243710517883,89.44058990478516,0.0
659,-1.0060625076293945,0.003049135208129883,0.0051059722900390625,0.21971559524536133,-0.1414813995361328,0.27032995223999023,0.17364706099033356,89.66131591796875,0.0,-1.4214671850204468,18.005285263061523,-35.714054107666016,0.2095191925764084,89.44197082519531,0.0
664,-1.0048418045043945,0.0008518695831298828,0.0011997222900390625,0.4029216766357422,-0.2178173065185547,-0.01974630355834961,0.04857330396771431,89.91609954833984,0.0,-1.4194525480270386,18.004196166992188,-35.71415328979492,0.21000291407108307,89.44534301757812,0.0
669,-1.0026445388793945,0.003293275833129883,0.0036411285400390625,-0.009292125701904297,0.11806058883666992,0.2855973243713379,0.18819120526313782,89.71945190429688,0.0,-1.4194990396499634,18.004785537719727,-35.71272659301758,0.20975293219089508,89.448486328125,0.0
674,-0.9999589920043945,0.003049135208129883,0.0021762847900390625,-0.2077655792236328,0.011190414428710938,0.2550630569458008,0.1747087836265564,89.78535461425781,0.0,-1.4205378293991089,18.004840850830078,-35.71145248413086,0.20839759707450867,89.45167541503906,0.0
679,-1.0014238357543945,0.004758119583129883,0.009256362915039062,-0.05509376525878906,0.13332796096801758,0.1481928825378418,0.27221888303756714,89.40455627441406,0.0,-1.4208133220672607,18.005508422851562,-35.71071243286133,0.2087160050868988,89.45189666748047,0.0
684,-0.9989824295043945,0.0018284320831298828,0.013162612915039062,-0.1466965675354004,0.3318009376525879,0.1787271499633789,0.10485893487930298,89.23786926269531,0.0,-1.4215468168258667,18.00716781616211,-35.70981979370117,0.20703133940696716,89.4515609741211,0.0
689,-1.0014238357543945,0.0010960102081298828,0.0075473785400390625,0.06704378128051758,-0.12621402740478516,0.2855973243713379,0.06270566582679749,89.56365966796875,0.0,-1.42121160030365,18.00653648376465,-35.70839309692383,0.20603811740875244,89.45196533203125,0.0
694,-1.0028886795043945,0.004269838333129883,0.009012222290039062,-0.13142967224121094,-0.32468748092651367,0.22452878952026367,0.2439277321100235,89.43028259277344,0.0,-1.4218688011169434,18.004913330078125,-35.707271575927734,0.20573341846466064,89.45015716552734,0.0
699,-0.9980058670043945,0.005490541458129883,0.0073032379150390625,0.11284542083740234,-0.5384278297424316,-0.004478931427001953,0.3152018189430237,89.4754638671875,0.0,-1.4213045835494995,18.002222061157227,-35.70729446411133,0.20728911459445953,89.44771575927734,0.0
704,-1.0060625076293945,0.0018284320831298828,0.011941909790039062,0.021242141723632812,0.08752632141113281,-0.11134910583496094,0.10412270575761795,89.31201171875,0.0,-1.4211983680725098,18.00265884399414,-35.70785140991211,0.20645911991596222,89.44691467285156,0.0
709,-1.0024003982543945,0.004513978958129883,0.013895034790039062,0.1586465835571289,-0.37048912048339844,0.27032995223999023,0.25798606872558594,89.16497802734375,0.0,-1.4204051494598389,18.00080680847168,-35.70650100708008,0.2077103555202484,89.44253540039062,0.0
715,-0.9940996170043945,0.005002260208129883,0.0063266754150390625,0.1586465835571289,-0.03461122512817383,-0.11134910583496094,0.2883012592792511,89.53515625,0.0,-1.419611930847168,18.000633239746094,-35.70705795288086,0.2092210203409195,89.44319152832031,0.0
720,-1.0009355545043945,0.005246400833129883,0.011209487915039062,-0.039826393127441406,0.011190414428710938,-0.41669273376464844,0.30029407143592834,89.29158020019531,0.0,-1.4198509454727173,18.000699996948242,-35.709556579589844,0.20980143547058105,89.44190216064453,0.0
725,-1.0026445388793945,0.002072572708129883,0.014627456665039062,-0.039826393127441406,0.255465030670166,-0.09608221054077148,0.11842368543148041,89.15583038330078,0.0,-1.420050024986267,18.001977920532227,-35.71003723144531,0.20878741145133972,89.44060516357422,0.0
730,-1.0002031326293945,0.006222963333129883,0.0060825347900390625,0.1281123161315918,0.08752632141113281,-0.09608221054077148,0.3564659357070923,89.50153350830078,0.0,-1.4194095134735107,18.00241470336914,-35.71051788330078,0.21073685586452484,89.44158172607422,0.0
735,-1.0004472732543945,0.004758119583129883,0.014627456665039062,0.3265857696533203,0.27073240280151367,0.13292551040649414,0.27246710658073425,89.11914825439453,0.0,-1.4177765846252441,18.003768920898438,-35.70985412597656,0.21290265023708344,89.4400634765625,0.0
740,-1.0033769607543945,-0.0013453960418701172,0.0055942535400390625,-0.2535672187805176,0.2249307632446289,-0.30982255935668945,-0.07682483643293381,89.67144775390625,0.0,-1.4190443754196167,18.004894256591797,-35.711402893066406,0.20908698439598083,89.44322204589844,0.0
745,-0.9977617263793945,0.004025697708129883,0.009256362915039062,0.08231067657470703,0.13332796096801758,-0.5540971755981445,0.2311617136001587,89.4203872680664,0.0,-1.4186328649520874,18.00556182861328,-35.71417236328125,0.2096891552209854,89.44367980957031,0.0
750,-1.0036211013793945,0.004269838333129883,0.013650894165039062,-0.08562803268432617,-0.08041238784790039,-0.004478931427001953,0.24373701214790344,89.18350219726562,0.0,-1.4190609455108643,18.005159378051758,-35.714195251464844,0.2095632255077362,89.44100189208984,0.0
755,-0.9962968826293945,0.004269838333129883,0.011697769165039062,-0.2077655792236328,0.04172468185424805,0.13292551040649414,0.24553459882736206,89.28389739990234,0.0,-1.4200997352600098,18.005367279052734,-35.713531494140625,0.20884761214256287,89.43983459472656,0.0
760,-0.9984941482543945,0.0010960102081298828,0.009256362915039062,0.021242141723632812,0.20966386795043945,-0.14188337326049805,0.0628887340426445,89.46515655517578,0.0,-1.41999351978302,18.00641632080078,-35.71424102783203,0.20768286287784576,89.44109344482422,0.0
765,-1.0031328201293945,0.0018284320831298828,0.010477066040039062,-0.2535672187805176,-0.03461122512817383,-0.21821928024291992,0.10442845523357391,89.39256286621094,0.0,-1.4212613105773926,18.006242752075195,-35.71533203125,0.2055308073759079,89.44049835205078,0.0
770,-0.9972734451293945,-0.0001246929168701172,0.0029087066650390625,0.005974769592285156,-0.004076957702636719,-0.01974630355834961,-0.007163879927247763,89.83273315429688,0.0,-1.4212313890457153,18.006221771240234,-35.715431213378906,0.20372292399406433,89.44386291503906,0.0
775,-1.0024003982543945,-0.003298521041870117,-0.0027065277099609375,-0.22303247451782227,-0.20254993438720703,0.20926141738891602,-0.18853740394115448,89.75611877441406,0.0,-1.422346591949463,18.00520896911621,-35.714385986328125,0.19924047589302063,89.44554138183594,0.0
780,-1.0080156326293945,0.002560853958129883,0.0033969879150390625,-0.375704288482666,0.026457786560058594,0.1787271499633789,0.14555823802947998,89.75819396972656,0.0,-1.424225091934204,18.005340576171875,-35.71349334716797,0.19691753387451172,89.44834899902344,0.0
785,-0.9955644607543945,0.0015842914581298828,0.0065708160400390625,0.1586465835571289,0.0569920539855957,0.4535360336303711,0.09117557108402252,89.61101531982422,0.0,-1.4234318733215332,18.005624771118164,-35.71122741699219,0.19679991900920868,89.45001983642578,0.0
790,-1.0026445388793945,0.005978822708129883,0.009012222290039062,0.06704378128051758,0.17912960052490234,0.40773487091064453,0.3416399359703064,89.38199615478516,0.0,-1.4230966567993164,18.006521224975586,-35.709190368652344,0.1983664482831955,89.45032501220703,0.0
795,-1.0041093826293945,0.004758119583129883,0.011209487915039062,-0.22303247451782227,0.08752632141113281,0.20926141738891602,0.27148550748825073,89.30516815185547,0.0,-1.424211859703064,18.0069580078125,-35.70814514160156,0.19788172841072083,89.44952392578125,0.0
800,-0.9958086013793945,0.0008518695831298828,0.0031528472900390625,0.005974769592285156,-0.08041238784790039,0.19399404525756836,0.049013711512088776,89.81208801269531,0.0,-1.4241819381713867,18.006555557250977,-35.707176208496094,0.19665120542049408,89.45219421386719,0.0
805,-1.0041093826293945,0.004758119583129883,0.010477066040039062,0.17391395568847656,-0.32468748092651367,0.1787271499633789,0.27148765325546265,89.34342956542969,0.0,-1.4233124256134033,18.004932403564453,-35.70628356933594,0.19814486801624298,89.44966888427734,0.0
810,-1.0006914138793945,0.002316713333129883,0.010232925415039062,-0.009292125701904297,-0.17201566696166992,0.43826913833618164,0.13263900578022003,89.39929962158203,0.0,-1.4233589172363281,18.004072189331055,-35.70409393310547,0.19754785299301147,89.4483871459961,0.0
815,-0.9958086013793945,0.002072572708129883,0.013406753540039062,-0.1466965675354004,-0.15674829483032227,-0.01974630355834961,0.11923851072788239,89.2195053100586,0.0,-1.424092411994934,18.00328826904297,-35.704193115234375,0.19616396725177765,89.44568634033203,0.0
820,-1.0038652420043945,0.004758119583129883,0.011697769165039062,-0.11616230010986328,-0.15674829483032227,0.22452878952026367,0.2715500295162201,89.27926635742188,0.0,-1.4246731996536255,18.002504348754883,-35.70307159423828,0.1962180882692337,89.44351959228516,0.0
825,-0.9984941482543945,0.0013401508331298828,0.014383316040039062,0.09757804870605469,0.011190414428710938,0.13292551040649414,0.07689276337623596,89.17113494873047,0.0,-1.4241852760314941,18.002559661865234,-35.70240783691406,0.19570763409137726,89.44129943847656,0.0
830,-0.9987382888793945,0.003781557083129883,0.011941909790039062,0.4639902114868164,-0.23308420181274414,0.33139896392822266,0.21692442893981934,89.28142547607422,0.0,-1.4218653440475464,18.001394271850586,-35.70075225830078,0.1981845647096634,89.43881225585938,0.0
835,-1.0072832107543945,0.004025697708129883,0.0014438629150390625,-0.1466965675354004,-0.1414813995361328,-0.17241811752319336,0.22898626327514648,89.75672912597656,0.0,-1.4225988388061523,18.000686645507812,-35.70161437988281,0.19771228730678558,89.44074249267578,0.0
840,-1.0031328201293945,0.004513978958129883,0.018777847290039062,0.09757804870605469,0.17912960052490234,0.10239124298095703,0.2577773332595825,88.89704895019531,0.0,-1.422110915184021,18.001583099365234,-35.70110321044922,0.198692187666893,89.43714141845703,0.0
845,-0.9992265701293945,0.002804994583129883,0.010721206665039062,0.005974769592285156,0.14859485626220703,-0.03501319885253906,0.1608290672302246,89.36457824707031,0.0,-1.4220809936523438,18.00232696533203,-35.70127868652344,0.1984100341796875,89.4372787475586,0.0
850,-0.9992265701293945,0.006955385208129883,0.0068149566650390625,-0.26883411407470703,0.08752632141113281,-0.08081483840942383,0.39880695939064026,89.44166564941406,0.0,-1.4234251976013184,18.002763748168945,-35.701683044433594,0.19872233271598816,89.437744140625,0.0
855,-0.9980058670043945,0.002072572708129883,0.0075473785400390625,0.14337968826293945,0.04172468185424805,0.056589603424072266,0.11898337304592133,89.55067443847656,0.0,-1.42270827293396,18.002971649169922,-35.70140075683594,0.19878047704696655,89.43887329101562,0.0
860,-0.9950761795043945,0.004513978958129883,0.014383316040039062,0.1586465835571289,-0.08041238784790039,0.056589603424072266,0.25988277792930603,89.1320571899414,0.0,-1.421915054321289,18.0025691986084,-35.70111846923828,0.20006613433361053,89.43596649169922,0.0
866,-1.0070390701293945,0.006955385208129883,0.0021762847900390625,0.08231067657470703,0.11806058883666992,-0.1876850128173828,0.395721435546875,89.58535766601562,0.0,-1.4214211702346802,18.003276824951172,-35.70224380493164,0.20215287804603577,89.4378890991211,0.0
871,-0.9977617263793945,0.003781557083129883,0.009988784790039062,-0.039826393127441406,0.2249307632446289,0.11765861511230469,0.21714138984680176,89.3866958618164,0.0,-1.42162024974823,18.00440216064453,-35.701656341552734,0.20207735896110535,89.43858337402344,0.0
876,-0.9931230545043945,0.005734682083129883,0.010721206665039062,-0.08562803268432617,-0.3399543762207031,-0.06554794311523438,0.3308253586292267,89.29857635498047,0.0,-1.4220483303070068,18.002702713012695,-35.70198440551758,0.20269779860973358,89.43576049804688,0.0
881,-1.0021562576293945,0.003293275833129883,0.008279800415039062,0.005974769592285156,-0.23308420181274414,0.20926141738891602,0.1882777065038681,89.49056243896484,0.0,-1.4220184087753296,18.001537322998047,-35.7009391784668,0.20261068642139435,89.43504333496094,0.0
886,-0.9994707107543945,0.005246400833129883,0.0051059722900390625,-0.08562803268432617,-0.20254993438720703,-0.11134910583496094,0.30074912309646606,89.58032989501953,0.0,-1.4224464893341064,18.000524520874023,-35.70149612426758,0.20297843217849731,89.43521118164062,0.0
891,-0.9980058670043945,0.004269838333129883,0.0077915191650390625,-0.1772313117980957,-0.309420108795166,-0.20295238494873047,0.24512358009815216,89.48993682861328,0.0,-1.423332691192627,17.998977661132812,-35.702510833740234,0.2024388313293457,89.43411254882812,0.0
896,-1.0072832107543945,0.003781557083129883,0.016092300415039062,0.23498249053955078,-0.309420108795166,0.056589603424072266,0.21507218480110168,89.05979919433594,0.0,-1.4221577644348145,17.9974308013916,-35.70222854614258,0.2037057876586914,89.42957305908203,0.0
901,-0.9975175857543945,0.0003635883331298828,0.0068149566650390625,0.09757804870605469,0.0569920539855957,-0.23348665237426758,0.020883431658148766,89.6080093383789,0.0,-1.421669840812683,17.99771499633789,-35.70339584350586,0.2027248591184616,89.43128204345703,0.0
906,-0.9999589920043945,0.002072572708129883,0.009744644165039062,-0.039826393127441406,0.11806058883666992,-0.06554794311523438,0.1187487319111824,89.4291763305664,0.0,-1.421868920326233,17.99830436706543,-35.7037239074707,0.2018561065196991,89.43184661865234,0.0
911,-1.0063066482543945,0.002072572708129883,0.0029087066650390625,0.05177640914916992,0.3318009376525879,0.026055335998535156,0.11800479143857956,89.79664611816406,0.0,-1.4216099977493286,17.999963760375977,-35.70359420776367,0.2014443576335907,89.4364013671875,0.0
916,-0.9994707107543945,-0.0001246929168701172,0.009744644165039062,0.06704378128051758,0.04172468185424805,-0.09608221054077148,-0.007147821597754955,89.44135284423828,0.0,-1.4212747812271118,18.000171661376953,-35.70407485961914,0.2001177966594696,89.4366455078125,0.0
921,-0.9975175857543945,-0.0013453960418701172,0.0021762847900390625,-0.08562803268432617,0.4234042167663574,0.27032995223999023,-0.07727711647748947,89.85304260253906,0.0,-1.4217028617858887,18.002288818359375,-35.70272445678711,0.19749197363853455,89.44204711914062,0.0
926,-1.0045976638793945,0.004758119583129883,0.009500503540039062,0.021242141723632812,0.11806058883666992,0.2855973243713379,0.27135834097862244,89.3940200805664,0.0,-1.421596646308899,18.002878189086914,-35.701297760009766,0.19818207621574402,89.44225311279297,0.0
931,-0.9970293045043945,0.003293275833129883,0.009012222290039062,0.03650951385498047,-0.3399543762207031,0.13292551040649414,0.1892445981502533,89.44862365722656,0.0,-1.4214141368865967,18.001178741455078,-35.70063400268555,0.1982925981283188,89.44061279296875,0.0
936,-0.9992265701293945,0.0003635883331298828,0.009988784790039062,0.11284542083740234,-0.23308420181274414,0.27032995223999023,0.020847158506512642,89.4268798828125,0.0,-1.4208499193191528,18.00001335144043,-35.699283599853516,0.19745419919490814,89.43934631347656,0.0
941,-1.0043535232543945,0.003537416458129883,0.011697769165039062,-0.039826393127441406,-0.5078935623168945,0.13292551040649414,0.20178596675395966,89.30286407470703,0.0,-1.4210489988327026,17.997474670410156,-35.6986198425293,0.19729067385196686,89.43575286865234,0.0
946,-0.9992265701293945,0.003781557083129883,0.008768081665039062,0.38765430450439453,-0.3857560157775879,0.16345977783203125,0.21682558953762054,89.45248413085938,0.0,-1.4191107749938965,17.995546340942383,-35.69780349731445,0.1993669718503952,89.43396759033203,0.0
951,-1.0038652420043945,0.002804994583129883,0.015359878540039062,-0.08562803268432617,-0.1109471321105957,-0.06554794311523438,0.16007639467716217,89.1089096069336,0.0,-1.4195388555526733,17.994991302490234,-35.6981315612793,0.19863466918468475,89.43087005615234,0.0
956,-1.0019121170043945,0.0018284320831298828,0.009500503540039062,0.25024986267089844,-0.09567975997924805,0.5909409523010254,0.10455669462680817,89.44674682617188,0.0,-1.4182876348495483,17.9945125579834,-35.69517517089844,0.19914141297340393,89.4305191040039,0.0
961,-0.9960527420043945,0.002804994583129883,0.0075473785400390625,0.14337968826293945,-0.29415321350097656,0.07185697555541992,0.1613461822271347,89.53684997558594,0.0,-1.41757071018219,17.9930419921875,-35.69481658935547,0.19955818355083466,89.42988586425781,0.0
966,-1.0043535232543945,0.002072572708129883,0.0046176910400390625,-0.4520401954650879,0.026457786560058594,0.10239124298095703,0.11823350936174393,89.71125793457031,0.0,-1.4198309183120728,17.993173599243164,-35.694305419921875,0.1966831237077713,89.43220520019531,0.0
971,-0.9982500076293945,0.002316713333129883,0.011697769165039062,0.1586465835571289,0.026457786560058594,0.056589603424072266,0.1329612284898758,89.31558227539062,0.0,-1.4190376996994019,17.993305206298828,-35.69402313232422,0.1969757080078125,89.43142700195312,0.0
976,-0.9970293045043945,0.004758119583129883,0.0053501129150390625,-0.10089540481567383,0.3318009376525879,0.40773487091064453,0.27342644333839417,89.58855438232422,0.0,-1.4195421934127808,17.994964599609375,-35.691986083984375,0.19706718623638153,89.43428802490234,0.0
981,-1.0024003982543945,0.002804994583129883,0.0060825347900390625,0.03650951385498047,0.31653404235839844,-0.03501319885253906,0.16032612323760986,89.61714935302734,0.0,-1.4193596839904785,17.99654769897461,-35.692161560058594,0.19696438312530518,89.43727111816406,0.0
986,-1.0002031326293945,0.004513978958129883,0.0053501129150390625,0.2960515022277832,0.10279369354248047,0.5756735801696777,0.2585739493370056,89.5990219116211,0.0,-1.4178794622421265,17.997060775756836,-35.68928146362305,0.19890841841697693,89.43902587890625,0.0
991,-0.9960527420043945,0.004025697708129883,0.009988784790039062,0.1281123161315918,-0.019343852996826172,0.22452878952026367,0.23155665397644043,89.38053131103516,0.0,-1.4172389507293701,17.996963500976562,-35.68815994262695,0.19979536533355713,89.4384765625,0.0
996,-1.0011796951293945,0.003049135208129883,0.010721206665039062,-0.4062385559082031,-0.29415321350097656,-0.17241811752319336,0.1744861751794815,89.36213684082031,0.0,-1.4192701578140259,17.995492935180664,-35.689022064208984,0.197585329413414,89.43643188476562,0.0
1001,-0.9987382888793945,0.004025697708129883,0.0065708160400390625,0.1281123161315918,-0.3399543762207031,-0.24875402450561523,0.23094062507152557,89.55792999267578,0.0,-1.4186296463012695,17.993793487548828,-35.69026565551758,0.19847673177719116,89.43567657470703,0.0
1006,-0.9982500076293945,0.004025697708129883,0.0063266754150390625,-0.1772313117980957,-0.26361894607543945,0.1481928825378418,0.23105394840240479,89.5696029663086,0.0,-1.41951584815979,17.992475509643555,-35.68952560424805,0.1978466808795929,89.43539428710938,0.0
1012,-0.9989824295043945,0.0010960102081298828,0.0075473785400390625,-0.375704288482666,0.08752632141113281,-0.20295238494873047,0.06285890191793442,89.56259155273438,0.0,-1.4213943481445312,17.99291229248047,-35.6905403137207,0.1949513554573059,89.43679809570312,0.0
1017,-0.9987382888793945,0.00011944770812988281,0.008523941040039062,-0.11616230010986328,0.011190414428710938,-0.08081483840942383,0.006852245889604092,89.5109634399414,0.0,-1.4220913648605347,17.992979049682617,-35.69102478027344,0.19282187521457672,89.43743133544922,0.0
1022,-1.0004472732543945,0.0015842914581298828,0.015115737915039062,0.4029216766357422,0.20966386795043945,-0.20295238494873047,0.09072220325469971,89.12964630126953,0.0,-1.4200767278671265,17.994028091430664,-35.692039489746094,0.19404210150241852,89.43611907958984,0.0
1027,-0.9989824295043945,0.004758119583129883,0.0055942535400390625,-0.039826393127441406,0.34706830978393555,-0.2945551872253418,0.2728915214538574,89.57879638671875,0.0,-1.4202758073806763,17.995763778686523,-35.693511962890625,0.19444498419761658,89.43892669677734,0.0
1032,-0.9980058670043945,0.002316713333129883,0.011453628540039062,-0.13142967224121094,0.3623356819152832,0.07185697555541992,0.1329941302537918,89.32915496826172,0.0,-1.4209330081939697,17.997575759887695,-35.693153381347656,0.1933256834745407,89.43988800048828,0.0
1037,-1.0011796951293945,0.003537416458129883,0.008768081665039062,0.17391395568847656,-0.1109471321105957,-0.3250899314880371,0.2024316042661667,89.45893859863281,0.0,-1.4200634956359863,17.997020721435547,-35.69477844238281,0.19425775110721588,89.43948364257812,0.0
1042,-1.0031328201293945,0.006222963333129883,0.010721206665039062,-0.10089540481567383,-0.004076957702636719,-0.44722700119018555,0.355411171913147,89.2919921875,0.0,-1.4205679893493652,17.996999740600586,-35.69701385498047,0.19497784972190857,89.43834686279297,0.0
1047,-1.0011796951293945,0.0013401508331298828,0.0063266754150390625,-0.05509376525878906,-0.15674829483032227,0.2550630569458008,0.07669293135404587,89.6299057006836,0.0,-1.420843482017517,17.9962158203125,-35.69573974609375,0.19381000101566315,89.43901824951172,0.0
1052,-1.0002031326293945,0.003049135208129883,0.0024204254150390625,0.1586465835571289,0.17912960052490234,-0.1876850128173828,0.17466604709625244,89.77699279785156,0.0,-1.4200502634048462,17.997112274169922,-35.696678161621094,0.19445273280143738,89.44245910644531,0.0
1057,-1.0038652420043945,0.00011944770812988281,0.0021762847900390625,-0.32990312576293945,-0.08041238784790039,0.10239124298095703,0.00681748241186142,89.87560272216797,0.0,-1.4216997623443604,17.9967098236084,-35.6961669921875,0.19140160083770752,89.44532012939453,0.0
1062,-0.9989824295043945,0.003537416458129883,0.0073032379150390625,-0.23829984664916992,-0.2483515739440918,0.22452878952026367,0.20287922024726868,89.53459167480469,0.0,-1.4228912591934204,17.995468139648438,-35.695045471191406,0.1903054267168045,89.44475555419922,0.0
1067,-0.9994707107543945,0.0006077289581298828,0.0016880035400390625,-0.05509376525878906,-0.32468748092651367,0.10239124298095703,0.03483869135379791,89.89715576171875,0.0,-1.4231667518615723,17.993844985961914,-35.69453430175781,0.18886429071426392,89.44654083251953,0.0
1072,-1.0011796951293945,0.003293275833129883,0.0024204254150390625,0.08231067657470703,-0.004076957702636719,0.20926141738891602,0.18846723437309265,89.76610565185547,0.0,-1.422755241394043,17.993824005126953,-35.69348907470703,0.1892697811126709,89.44891357421875,0.0
1077,-0.9992265701293945,0.005490541458129883,0.009256362915039062,-0.1466965675354004,-0.20254993438720703,0.27032995223999023,0.31481167674064636,89.3829116821289,0.0,-1.423488736152649,17.99281120300293,-35.692138671875,0.189481720328331,89.4474105834961,0.0
1082,-1.0021562576293945,0.005246400833129883,0.009012222290039062,0.14337968826293945,0.1943964958190918,0.3466658592224121,0.299934983253479,89.40382385253906,0.0,-1.4227718114852905,17.993783950805664,-35.690406799316406,0.19101890921592712,89.44804382324219,0.0
1087,-0.9970293045043945,0.003049135208129883,0.0058383941650390625,-0.11616230010986328,0.07225894927978516,0.43826913833618164,0.1752195656299591,89.62149047851562,0.0,-1.423352599143982,17.994144439697266,-35.68821716308594,0.19032451510429382,89.44969177246094,0.0
1092,-0.9997148513793945,0.0015842914581298828,0.012674331665039062,-0.10089540481567383,0.27073240280151367,0.27032995223999023,0.0907917320728302,89.26799774169922,0.0,-1.4238570928573608,17.995498657226562,-35.686866760253906,0.1890820860862732,89.44967651367188,0.0
1097,-1.0038652420043945,0.007443666458129883,0.008035659790039062,0.05177640914916992,-0.17201566696166992,-0.06554794311523438,0.42482712864875793,89.37484741210938,0.0,-1.4235981702804565,17.994638442993164,-35.68719482421875,0.19109311699867249,89.4482650756836,0.0
1102,-1.0014238357543945,0.005002260208129883,0.0060825347900390625,0.1281123161315918,-0.08041238784790039,0.20926141738891602,0.28619322180747986,89.54943084716797,0.0,-1.4229576587677002,17.99423599243164,-35.68614959716797,0.19243545830249786,89.44861602783203,0.0
1107,-0.9977617263793945,0.003781557083129883,0.016092300415039062,-0.13142967224121094,-0.09567975997924805,0.636742115020752,0.21712402999401093,89.05082702636719,0.0,-1.4236148595809937,17.993757247924805,-35.68296432495117,0.19196633994579315,89.4451904296875,0.0
1112,-0.9989824295043945,0.0010960102081298828,0.015848159790039062,-0.16196393966674805,-0.23308420181274414,0.33139896392822266,0.06285279244184494,89.08895111083984,0.0,-1.424424648284912,17.992591857910156,-35.68130874633789,0.1902061104774475,89.44139099121094,0.0
1117,-0.9965410232543945,0.002560853958129883,0.0065708160400390625,0.23498249053955078,-0.4926261901855469,0.11765861511230469,0.14723187685012817,89.59454345703125,0.0,-1.4232497215270996,17.990129470825195,-35.680721282958984,0.19105446338653564,89.44007873535156,0.0
1122,-0.9987382888793945,0.003293275833129883,0.012186050415039062,-0.08562803268432617,-0.08041238784790039,-0.08081483840942383,0.1889144331216812,89.27587127685547,0.0,-1.4236778020858765,17.989727020263672,-35.68112564086914,0.19061367213726044,89.43846130371094,0.0
1127,-1.0055742263793945,0.005490541458129883,0.0068149566650390625,-0.11616230010986328,-0.3552217483520508,-0.1571507453918457,0.31283071637153625,89.5013656616211,0.0,-1.4242585897445679,17.987951278686523,-35.68191146850586,0.19093860685825348,89.43716430664062,0.0
1132,-1.0026445388793945,0.002072572708129883,0.012186050415039062,0.2960515022277832,0.13332796096801758,-0.01974630355834961,0.11842754483222961,89.29367065429688,0.0,-1.4227783679962158,17.988618850708008,-35.682010650634766,0.19187384843826294,89.436767578125,0.0
1137,-1.0004472732543945,0.005246400833129883,0.0029087066650390625,0.021242141723632812,-0.08041238784790039,-0.2640209197998047,0.30045822262763977,89.65645599365234,0.0,-1.422672152519226,17.988216400146484,-35.68333053588867,0.19277800619602203,89.43798065185547,0.0
1142,-1.0006914138793945,0.004758119583129883,0.014627456665039062,-0.19249820709228516,0.48447275161743164,-0.11134910583496094,0.2724006474018097,89.1193618774414,0.0,-1.423634648323059,17.990638732910156,-35.68388748168945,0.19240747392177582,89.43804931640625,0.0
1147,-0.9989824295043945,0.003049135208129883,0.0019321441650390625,-0.11616230010986328,0.3012666702270508,-0.4319601058959961,0.17487965524196625,89.79296875,0.0,-1.4242154359817505,17.992145538330078,-35.6860466003418,0.19170233607292175,89.44214630126953,0.0
1152,-0.9997148513793945,0.003049135208129883,0.0014438629150390625,0.21971559524536133,0.5302743911743164,0.11765861511230469,0.17475168406963348,89.80664825439453,0.0,-1.4231168031692505,17.994796752929688,-35.68545913696289,0.19266867637634277,89.44744873046875,0.0
1158,-0.9982500076293945,0.008664369583129883,0.0053501129150390625,0.005974769592285156,0.2249307632446289,0.23979568481445312,0.4972824454307556,89.4155502319336,0.0,-1.4230868816375732,17.995922088623047,-35.684261322021484,0.1949271708726883,89.44832611083984,0.0
1163,-0.9950761795043945,0.0015842914581298828,0.0058383941650390625,-0.07036113739013672,0.10279369354248047,-0.20295238494873047,0.09122072905302048,89.65167999267578,0.0,-1.4235090017318726,17.996538162231445,-35.68547821044922,0.19374826550483704,89.45043182373047,0.0
1168,-1.0060625076293945,0.002804994583129883,-2.09808349609375e-05,0.08231067657470703,-0.1414813995361328,-0.06554794311523438,0.1597454696893692,89.84024810791016,0.0,-1.4230974912643433,17.995830535888672,-35.68580627441406,0.19390800595283508,89.45258331298828,0.0
1173,-1.0031328201293945,0.0013401508331298828,-0.0002651214599609375,0.09757804870605469,-0.2788858413696289,-0.1266164779663086,0.07654513418674469,89.9219741821289,0.0,-1.422609567642212,17.994436264038086,-35.686439514160156,0.19353464245796204,89.45462799072266,0.0
1178,-1.0009355545043945,0.005246400833129883,0.011209487915039062,-0.23829984664916992,-0.17201566696166992,0.0107879638671875,0.30029407143592834,89.29158020019531,0.0,-1.423801064491272,17.993576049804688,-35.68638610839844,0.19313105940818787,89.45258331298828,0.0
1183,-1.0031328201293945,0.002072572708129883,0.008035659790039062,-0.009292125701904297,-0.08041238784790039,-0.38615846633911133,0.11837483942508698,89.52601623535156,0.0,-1.4238475561141968,17.993173599243164,-35.688316345214844,0.1925399899482727,89.45272064208984,0.0
1188,-0.9980058670043945,0.003049135208129883,0.008523941040039062,0.05177640914916992,-0.004076957702636719,0.13292551040649414,0.1750447303056717,89.48028564453125,0.0,-1.4235886335372925,17.993152618408203,-35.687652587890625,0.1926696002483368,89.45289611816406,0.0
1193,-0.9965410232543945,-0.0001246929168701172,0.008768081665039062,0.23498249053955078,0.28599977493286133,0.2855973243713379,-0.007168898358941078,89.49584197998047,0.0,-1.42241370677948,17.994583129882812,-35.68622589111328,0.19238276779651642,89.45462799072266,0.0
1198,-1.0033769607543945,0.003537416458129883,0.0036411285400390625,-0.1466965675354004,-0.2178173065185547,0.4535360336303711,0.20199473202228546,89.71012115478516,0.0,-1.423147201538086,17.993494033813477,-35.6839599609375,0.19172443449497223,89.45539855957031,0.0
1203,-0.9994707107543945,-0.0003688335418701172,0.0019321441650390625,-0.009292125701904297,0.07225894927978516,0.13292551040649414,-0.021143756806850433,89.88723754882812,0.0,-1.4231936931610107,17.993854522705078,-35.68329620361328,0.19013403356075287,89.4588851928711,0.0
1208,-0.9977617263793945,0.005246400833129883,0.011697769165039062,0.1586465835571289,0.4234042167663574,0.6214752197265625,0.3012474775314331,89.26383972167969,0.0,-1.4224004745483398,17.9959716796875,-35.6801872253418,0.1917266696691513,89.4595718383789,0.0
1213,-1.0045976638793945,0.002072572708129883,0.009012222290039062,0.06704378128051758,0.3623356819152832,0.8962841033935547,0.11820127069950104,89.47259521484375,0.0,-1.422065258026123,17.997783660888672,-35.67570495605469,0.19152729213237762,89.46146392822266,0.0
1218,-0.9994707107543945,0.0008518695831298828,0.0070590972900390625,-0.024559497833251953,-0.37048912048339844,0.6214752197265625,0.048833150416612625,89.59239959716797,0.0,-1.4221880435943604,17.99593162536621,-35.6725959777832,0.1903737485408783,89.4605712890625,0.0
1223,-0.9962968826293945,0.007443666458129883,0.012430191040039062,-0.22303247451782227,-0.2178173065185547,0.6062078475952148,0.42803460359573364,89.16683959960938,0.0,-1.423303246498108,17.994842529296875,-35.66956329345703,0.19098293781280518,89.45736694335938,0.0
1228,-1.0033769607543945,0.002804994583129883,0.0073032379150390625,0.08231067657470703,-0.5231609344482422,0.1481928825378418,0.16016879677772522,89.55326843261719,0.0,-1.4228917360305786,17.99222755432129,-35.6688232421875,0.19116924703121185,89.45545959472656,0.0
1233,-1.0004472732543945,0.002560853958129883,0.011453628540039062,0.09757804870605469,-0.2178173065185547,0.3466658592224121,0.14665059745311737,89.327880859375,0.0,-1.4224038124084473,17.991138458251953,-35.667091369628906,0.1913328319787979,89.45346069335938,0.0
1238,-0.9980058670043945,0.004513978958129883,0.013406753540039062,0.3723874092102051,-0.309420108795166,0.056589603424072266,0.2591235637664795,89.18791198730469,0.0,-1.4205418825149536,17.989591598510742,-35.66680908203125,0.19366931915283203,89.45001220703125,0.0
1243,-1.0038652420043945,0.005002260208129883,0.014139175415039062,0.18918085098266602,-0.309420108795166,0.4535360336303711,0.28547418117523193,89.14405059814453,0.0,-1.4195959568023682,17.98804473876953,-35.66454315185547,0.19526854157447815,89.44627380371094,0.0
1248,-0.9984941482543945,0.0006077289581298828,0.0053501129150390625,0.08231067657470703,0.011190414428710938,-0.01974630355834961,0.03487231209874153,89.69102478027344,0.0,-1.4191844463348389,17.988100051879883,-35.664642333984375,0.19452503323554993,89.44808197021484,0.0
1253,-0.9987382888793945,0.003293275833129883,0.010721206665039062,0.14337968826293945,0.0569920539855957,-0.01974630355834961,0.1889176070690155,89.35660552978516,0.0,-1.4184675216674805,17.988384246826172,-35.66474151611328,0.19519655406475067,89.44770812988281,0.0
1258,-1.0063066482543945,0.006955385208129883,0.010232925415039062,-0.11616230010986328,0.45393848419189453,0.23979568481445312,0.39598989486694336,89.29556274414062,0.0,-1.4190483093261719,17.99065399169922,-35.663543701171875,0.1960592120885849,89.44886779785156,0.0
1263,-0.9967851638793945,0.003537416458129883,0.0058383941650390625,0.09757804870605469,0.34706830978393555,0.04132270812988281,0.20332837104797363,89.60762023925781,0.0,-1.4185603857040405,17.992389678955078,-35.66333770751953,0.1965956687927246,89.45172119140625,0.0
1268,-0.9972734451293945,0.0010960102081298828,0.008279800415039062,0.18918085098266602,0.5302743911743164,-0.2640209197998047,0.0629662498831749,89.5201644897461,0.0,-1.417614459991455,17.995040893554688,-35.66465759277344,0.19657884538173676,89.45484924316406,0.0
1273,-1.0038652420043945,0.005734682083129883,0.009988784790039062,0.005974769592285156,0.27073240280151367,-0.24875402450561523,0.3272881805896759,89.34264373779297,0.0,-1.4175845384597778,17.996395111083984,-35.66590118408203,0.19754266738891602,89.45539093017578,0.0
1278,-0.9928789138793945,0.004513978958129883,0.012918472290039062,0.021242141723632812,0.13332796096801758,-0.08081483840942383,0.26046305894851685,89.21036529541016,0.0,-1.417478322982788,17.99706268310547,-35.66630554199219,0.1980973780155182,89.45429992675781,0.0
1283,-1.0014238357543945,0.0010960102081298828,0.009500503540039062,0.2960515022277832,-0.5689620971679688,-0.08081483840942383,0.06270463019609451,89.45285034179688,0.0,-1.415998101234436,17.994218826293945,-35.666709899902344,0.19860129058361053,89.45146179199219,0.0
1288,-1.0011796951293945,0.004513978958129883,0.009988784790039062,0.1281123161315918,-0.12621402740478516,-0.37089109420776367,0.2583125829696655,89.37272644042969,0.0,-1.4153575897216797,17.993587493896484,-35.66856384277344,0.19966280460357666,89.45027160644531,0.0
1293,-0.9943437576293945,0.003781557083129883,0.0016880035400390625,0.25024986267089844,-0.3399543762207031,-0.27928829193115234,0.2178983837366104,89.7613754272461,0.0,-1.4141063690185547,17.99188804626465,-35.669960021972656,0.20103497803211212,89.45079803466797,0.0
1298,-1.0045976638793945,0.002804994583129883,0.011697769165039062,-0.039826393127441406,-0.019343852996826172,-0.09608221054077148,0.1599675565958023,89.31395721435547,0.0,-1.4143054485321045,17.991790771484375,-35.670440673828125,0.20054513216018677,89.4497299194336,0.0
1303,-1.0050859451293945,0.002804994583129883,0.0051059722900390625,-0.22303247451782227,0.13332796096801758,-0.41669273376464844,0.15989862382411957,89.66790771484375,0.0,-1.415420651435852,17.99245834350586,-35.672523498535156,0.199149027466774,89.45194244384766,0.0
1309,-0.9965410232543945,0.003537416458129883,0.0077915191650390625,-0.039826393127441406,0.011190414428710938,-0.1571507453918457,0.2033754587173462,89.5080337524414,0.0,-1.4156197309494019,17.99251365661621,-35.673309326171875,0.19898131489753723,89.452392578125,0.0
1314,-1.0043535232543945,0.004513978958129883,0.0009555816650390625,0.1586465835571289,-0.23308420181274414,0.23979568481445312,0.2575090229511261,89.73678588867188,0.0,-1.4146678447723389,17.99111557006836,-35.671871185302734,0.20034277439117432,89.4530258178711,0.0
1319,-1.0011796951293945,0.0015842914581298828,0.017801284790039062,-0.36043739318847656,0.14859485626220703,0.11765861511230469,0.09065185487270355,88.97734832763672,0.0,-1.4164700508117676,17.991859436035156,-35.67128372192383,0.1977737993001938,89.45037841796875,0.0
1324,-0.9933671951293945,0.006222963333129883,0.008279800415039062,0.06704378128051758,-0.09567975997924805,0.46880340576171875,0.3589130938053131,89.4026107788086,0.0,-1.4161348342895508,17.99138069152832,-35.668941497802734,0.19925084710121155,89.4495620727539,0.0
1329,-1.0048418045043945,0.006467103958129883,0.0002231597900390625,-0.16196393966674805,0.45393848419189453,0.46880340576171875,0.3687472343444824,89.63103485107422,0.0,-1.4169446229934692,17.993650436401367,-35.66659927368164,0.19964927434921265,89.4531021118164,0.0
1334,-0.9989824295043945,0.002316713333129883,0.010232925415039062,0.14337968826293945,0.11806058883666992,0.7588796615600586,0.13286589086055756,89.39826965332031,0.0,-1.4162276983261108,17.994239807128906,-35.662803649902344,0.1998877078294754,89.45330047607422,0.0
1339,-0.9945878982543945,0.006955385208129883,0.012186050415039062,0.2655167579650879,-0.29415321350097656,0.529871940612793,0.4006461501121521,89.19174194335938,0.0,-1.4149000644683838,17.992769241333008,-35.660152435302734,0.2026277333498001,89.44998931884766,0.0
1344,-1.0065507888793945,0.003049135208129883,0.015604019165039062,-0.08562803268432617,-0.3552217483520508,0.6062078475952148,0.17354419827461243,89.09504699707031,0.0,-1.4153281450271606,17.99099349975586,-35.65711975097656,0.2019968181848526,89.44570922851562,0.0
1349,-0.9999589920043945,0.003781557083129883,0.008768081665039062,0.1281123161315918,-0.43155765533447266,0.5909409523010254,0.2166667878627777,89.45288848876953,0.0,-1.4146876335144043,17.98883628845215,-35.6541633605957,0.20273657143115997,89.44361877441406,0.0
1354,-0.9958086013793945,0.002072572708129883,0.0063266754150390625,-0.08562803268432617,-0.6147637367248535,0.6978111267089844,0.11924691498279572,89.61695098876953,0.0,-1.4151157140731812,17.985761642456055,-35.650672912597656,0.20172163844108582,89.44178771972656,0.0
1359,-1.0041093826293945,0.0015842914581298828,0.008523941040039062,-0.16196393966674805,-0.2788858413696289,0.22452878952026367,0.0903983861207962,89.50529479980469,0.0,-1.4159255027770996,17.98436737060547,-35.64955139160156,0.20013171434402466,89.44084930419922,0.0
1364,-0.9955644607543945,0.002804994583129883,0.0075473785400390625,0.08231067657470703,-0.4468250274658203,0.33139896392822266,0.16142532229423523,89.53662109375,0.0,-1.4155139923095703,17.982133865356445,-35.64789581298828,0.20026735961437225,89.4393081665039,0.0
1369,-0.9962968826293945,0.002072572708129883,0.0070590972900390625,0.005974769592285156,-0.3857560157775879,-0.11134910583496094,0.11918788403272629,89.57691192626953,0.0,-1.415484070777893,17.980205535888672,-35.64845275878906,0.19972561299800873,89.43836212158203,0.0
1374,-1.0058183670043945,0.004758119583129883,0.011941909790039062,-0.11616230010986328,-0.09567975997924805,0.316131591796875,0.2710220217704773,89.26776885986328,0.0,-1.4160648584365845,17.979726791381836,-35.646873474121094,0.19965095818042755,89.43668365478516,0.0
1379,-1.0011796951293945,0.0018284320831298828,0.011941909790039062,0.17391395568847656,-0.06514549255371094,-0.05028057098388672,0.10463044047355652,89.30865478515625,0.0,-1.415195345878601,17.979400634765625,-35.647125244140625,0.19984577596187592,89.43545532226562,0.0
1384,-0.9965410232543945,0.006222963333129883,0.0073032379150390625,0.09757804870605469,0.3928699493408203,-0.1571507453918457,0.3577728569507599,89.44835662841797,0.0,-1.4147074222564697,17.981365203857422,-35.647911071777344,0.20144067704677582,89.43749237060547,0.0
1389,-1.0033769607543945,0.005246400833129883,0.0077915191650390625,-0.1466965675354004,0.3623356819152832,-0.508296012878418,0.2995731830596924,89.46363830566406,0.0,-1.4154409170150757,17.983177185058594,-35.65045166015625,0.20140184462070465,89.43946838378906,0.0
1394,-0.9914140701293945,0.004758119583129883,0.0038852691650390625,0.005974769592285156,0.6066102981567383,-0.06554794311523438,0.274976909160614,89.6449966430664,0.0,-1.4154109954833984,17.986209869384766,-35.650779724121094,0.20194807648658752,89.44392395019531,0.0
1399,-0.9970293045043945,0.003049135208129883,0.0014438629150390625,0.18918085098266602,-0.1414813995361328,-0.01974630355834961,0.17522238194942474,89.80612182617188,0.0,-1.414465069770813,17.985502243041992,-35.65087890625,0.20269985496997833,89.44576263427734,0.0
1404,-1.0038652420043945,0.005490541458129883,0.0033969879150390625,-0.2841014862060547,0.5302743911743164,-0.23348665237426758,0.31336867809295654,89.63150024414062,0.0,-1.4158855676651,17.9881534576416,-35.65204620361328,0.20206516981124878,89.44969940185547,0.0
1409,-0.9967851638793945,0.005002260208129883,0.013406753540039062,-0.08562803268432617,-0.2788858413696289,-0.34035682678222656,0.2875043451786041,89.17753601074219,0.0,-1.416313648223877,17.986759185791016,-35.65374755859375,0.20223858952522278,89.44640350341797,0.0
1414,-1.0019121170043945,0.0018284320831298828,0.0068149566650390625,-0.36043739318847656,-0.20254993438720703,-0.1266164779663086,0.10455897450447083,89.59650421142578,0.0,-1.4181158542633057,17.985746383666992,-35.654380798339844,0.1997651755809784,89.44644927978516,0.0
1419,-1.0055742263793945,0.003781557083129883,0.008523941040039062,0.09757804870605469,-0.12621402740478516,-0.14188337326049805,0.21545745432376862,89.46868896484375,0.0,-1.4176279306411743,17.98511505126953,-35.65509033203125,0.20035943388938904,89.44597625732422,0.0
1424,-1.0011796951293945,-0.002321958541870117,0.009012222290039062,-0.039826393127441406,-0.1414813995361328,-0.004478931427001953,-0.13287603855133057,89.46741485595703,0.0,-1.4178270101547241,17.984407424926758,-35.655113220214844,0.19783197343349457,89.44541931152344,0.0
1429,-1.0006914138793945,-0.0006129741668701172,0.009988784790039062,0.2655167579650879,0.11806058883666992,-0.1876850128173828,-0.035094812512397766,89.4270248413086,0.0,-1.416499376296997,17.984996795654297,-35.65605163574219,0.19752293825149536,89.44587707519531,0.0
1434,-1.0038652420043945,0.004025697708129883,0.015359878540039062,0.4029216766357422,-0.12621402740478516,0.056589603424072266,0.2297392636537552,89.09379577636719,0.0,-1.4144847393035889,17.984365463256836,-35.65576934814453,0.19974841177463531,89.44278717041016,0.0
1439,-0.9989824295043945,0.005490541458129883,0.008523941040039062,0.23498249053955078,0.24019813537597656,0.16345977783203125,0.31489065289497375,89.41849517822266,0.0,-1.4133098125457764,17.985567092895508,-35.65495300292969,0.2017185091972351,89.44380950927734,0.0
1444,-1.0009355545043945,0.003781557083129883,0.009256362915039062,-0.19249820709228516,0.026457786560058594,0.5451393127441406,0.21645446121692657,89.42765045166016,0.0,-1.4142723083496094,17.985698699951172,-35.652225494384766,0.2008654773235321,89.4438247680664,0.0
1449,-1.0009355545043945,0.005002260208129883,0.009500503540039062,-0.08562803268432617,-0.29415321350097656,0.3924674987792969,0.28632521629333496,89.38541412353516,0.0,-1.4147003889083862,17.984228134155273,-35.650264739990234,0.20103582739830017,89.44195556640625,0.0
1455,-0.9967851638793945,0.006711244583129883,0.008279800415039062,0.03650951385498047,-0.04987812042236328,0.3924674987792969,0.3857470154762268,89.38739013671875,0.0,-1.414517879486084,17.983978271484375,-35.6483039855957,0.20250342786312103,89.44132232666016,0.0
1460,-0.9992265701293945,0.003537416458129883,0.0073032379150390625,-0.4062385559082031,-0.04987812042236328,0.4535360336303711,0.20282964408397675,89.53470611572266,0.0,-1.4169553518295288,17.983678817749023,-35.64558410644531,0.20008528232574463,89.44168090820312,0.0
1465,-1.0004472732543945,-0.0003688335418701172,0.009256362915039062,0.03650951385498047,-0.2178173065185547,0.43826913833618164,-0.021122252568602562,89.469482421875,0.0,-1.4167728424072266,17.982589721679688,-35.643394470214844,0.19872379302978516,89.44078826904297,0.0
1470,-1.0004472732543945,0.003781557083129883,0.0046176910400390625,-0.08562803268432617,-0.3552217483520508,0.4535360336303711,0.2165670543909073,89.65818786621094,0.0,-1.4172009229660034,17.98081398010254,-35.64112854003906,0.19842299818992615,89.44053649902344,0.0
1475,-1.0055742263793945,0.004758119583129883,0.0043735504150390625,0.05177640914916992,-0.2178173065185547,0.46880340576171875,0.2711043655872345,89.63176727294922,0.0,-1.4169420003890991,17.979724884033203,-35.63878631591797,0.1991863250732422,89.44078826904297,0.0
1480,-1.0014238357543945,0.005002260208129883,0.0029087066650390625,-0.024559497833251953,-0.37048912048339844,0.529871940612793,0.286197304725647,89.66893768310547,0.0,-1.4170647859573364,17.977872848510742,-35.63613510131836,0.19967007637023926,89.44053649902344,0.0
1485,-0.9960527420043945,0.0015842914581298828,0.013406753540039062,-0.11616230010986328,-0.06514549255371094,0.20926141738891602,0.09112460911273956,89.2234878540039,0.0,-1.4176455736160278,17.97754669189453,-35.63508987426758,0.19833816587924957,89.4386978149414,0.0
1490,-1.0024003982543945,0.004025697708129883,0.0075473785400390625,0.005974769592285156,0.1638622283935547,-0.1876850128173828,0.23009538650512695,89.5110855102539,0.0,-1.4176156520843506,17.97836685180664,-35.63602828979492,0.19858862459659576,89.44001007080078,0.0
1495,-0.9982500076293945,0.002804994583129883,0.011209487915039062,-0.375704288482666,0.20966386795043945,-0.08081483840942383,0.16098551452159882,89.33680725097656,0.0,-1.4194941520690918,17.979415893554688,-35.63643264770508,0.19646188616752625,89.4403305053711,0.0
1500,-1.0021562576293945,0.0003635883331298828,0.012186050415039062,0.005974769592285156,0.31653404235839844,-0.1571507453918457,0.02078571729362011,89.30301666259766,0.0,-1.4194642305374146,17.980998992919922,-35.6372184753418,0.19527161121368408,89.44094848632812,0.0
1505,-1.0048418045043945,0.005734682083129883,0.008523941040039062,-0.08562803268432617,0.4997401237487793,-0.41669273376464844,0.3269745409488678,89.41423034667969,0.0,-1.4198923110961914,17.983497619628906,-35.63930130004883,0.19576048851013184,89.44324493408203,0.0
1510,-0.9982500076293945,0.002316713333129883,0.0046176910400390625,0.06704378128051758,0.255465030670166,-0.615166187286377,0.132968932390213,89.70347595214844,0.0,-1.4195570945739746,17.98477554321289,-35.64237594604492,0.1956578493118286,89.4463119506836,0.0
1515,-1.0024003982543945,0.002560853958129883,0.0046176910400390625,-0.024559497833251953,0.17912960052490234,-0.05028057098388672,0.14637289941310883,89.69818878173828,0.0,-1.419679880142212,17.985671997070312,-35.64262771606445,0.19519424438476562,89.44894409179688,0.0
1520,-0.9989824295043945,0.003049135208129883,0.015848159790039062,-0.08562803268432617,-0.23308420181274414,-0.23348665237426758,0.1748579889535904,89.07445526123047,0.0,-1.4201079607009888,17.984506607055664,-35.643795013427734,0.19462817907333374,89.4451904296875,0.0
1525,-0.9982500076293945,0.0003635883331298828,0.010965347290039062,0.18918085098266602,-0.17201566696166992,-0.4014253616333008,0.02086733654141426,89.37030792236328,0.0,-1.4191620349884033,17.983646392822266,-35.64580154418945,0.19436432421207428,89.44381713867188,0.0
1530,-1.0004472732543945,0.0018284320831298828,0.0053501129150390625,-0.10089540481567383,-0.06514549255371094,-0.3250899314880371,0.10471299290657043,89.67620086669922,0.0,-1.4196665287017822,17.983320236206055,-35.64742660522461,0.1932428777217865,89.44509887695312,0.0
1535,-1.0026445388793945,0.004025697708129883,0.0060825347900390625,0.03650951385498047,-0.3857560157775879,-0.08081483840942383,0.23004165291786194,89.58319091796875,0.0,-1.41948401927948,17.98139190673828,-35.647830963134766,0.19367870688438416,89.44413757324219,0.0
1540,-1.0011796951293945,0.004758119583129883,0.013650894165039062,-0.23829984664916992,0.0569920539855957,0.22452878952026367,0.2722715735435486,89.17274475097656,0.0,-1.42067551612854,17.98167610168457,-35.64670944213867,0.19303879141807556,89.44254302978516,0.0
1545,-1.0055742263793945,-0.0003688335418701172,0.012674331665039062,0.08231067657470703,-0.09567975997924805,-0.5846319198608398,-0.021013790741562843,89.27757263183594,0.0,-1.4202640056610107,17.981197357177734,-35.64963150024414,0.19196847081184387,89.44092559814453,0.0
1550,-1.0038652420043945,-0.0001246929168701172,0.011209487915039062,0.4639902114868164,0.1638622283935547,0.22452878952026367,-0.007116425782442093,89.3602066040039,0.0,-1.417944073677063,17.982017517089844,-35.64850997924805,0.1928974986076355,89.44117736816406,0.0
1555,-0.9948320388793945,0.004758119583129883,0.0070590972900390625,0.11284542083740234,0.4386711120605469,0.08712387084960938,0.27402737736701965,89.50971984863281,0.0,-1.4173798561096191,17.984210968017578,-35.648075103759766,0.19401784241199493,89.4438247680664,0.0
1560,-1.0038652420043945,-0.0008571147918701172,0.010477066040039062,0.03650951385498047,-0.09567975997924805,0.27032995223999023,-0.04891729727387428,89.4000473022461,0.0,-1.417197346687317,17.983732223510742,-35.646724700927734,0.19252310693264008,89.44304656982422,0.0
1565,-0.9994707107543945,0.004025697708129883,0.0055942535400390625,-0.024559497833251953,0.17912960052490234,0.19399404525756836,0.23077277839183807,89.60490417480469,0.0,-1.4173201322555542,17.984628677368164,-35.645755767822266,0.19266490638256073,89.4450454711914,0.0
1570,-0.9994707107543945,0.003781557083129883,0.010721206665039062,-0.024559497833251953,0.14859485626220703,0.026055335998535156,0.21676850318908691,89.34831237792969,0.0,-1.4174429178237915,17.98537254333496,-35.645626068115234,0.1927090883255005,89.44511413574219,0.0
1575,-1.0058183670043945,0.0013401508331298828,0.0031528472900390625,0.1586465835571289,-0.23308420181274414,0.2550630569458008,0.07634038478136063,89.80484771728516,0.0,-1.4166496992111206,17.984207153320312,-35.644351959228516,0.19269520044326782,89.4464340209961,0.0
1580,-0.9992265701293945,0.004513978958129883,0.013162612915039062,-0.10089540481567383,-0.08041238784790039,0.46880340576171875,0.2588079273700714,89.20215606689453,0.0,-1.4171541929244995,17.98380470275879,-35.64200973510742,0.19264942407608032,89.44435119628906,0.0
1585,-0.9980058670043945,0.002804994583129883,0.008768081665039062,-0.08562803268432617,-0.40102338790893555,0.3466658592224121,0.16102883219718933,89.47150421142578,0.0,-1.4175822734832764,17.981800079345703,-35.64027786254883,0.19200660288333893,89.44254302978516,0.0
1590,-1.0043535232543945,0.003293275833129883,0.013162612915039062,-0.22303247451782227,-0.3399543762207031,-0.06554794311523438,0.18785609304904938,89.22600555419922,0.0,-1.418697476387024,17.980100631713867,-35.64060592651367,0.19087056815624237,89.43936157226562,0.0
1595,-0.9967851638793945,0.003537416458129883,0.011697769165039062,-0.2077655792236328,-0.32468748092651367,0.20926141738891602,0.20331786572933197,89.29756927490234,0.0,-1.4197362661361694,17.978477478027344,-35.63956069946289,0.1899244636297226,89.43677520751953,0.0
1600,-0.9994707107543945,0.003781557083129883,0.011941909790039062,-0.024559497833251953,-0.03461122512817383,0.33139896392822266,0.21676549315452576,89.28195190429688,0.0,-1.4198590517044067,17.978303909301758,-35.63790512084961,0.18998698890209198,89.43553924560547,0.0
1606,-1.0053300857543945,0.003537416458129883,0.012430191040039062,-0.08562803268432617,0.026457786560058594,0.10239124298095703,0.2015882283449173,89.26348876953125,0.0,-1.4203728437423706,17.97846221923828,-35.637290954589844,0.18955668807029724,89.43450927734375,0.0
1611,-0.9948320388793945,0.002804994583129883,0.009744644165039062,0.4029216766357422,-0.004076957702636719,-0.01974630355834961,0.16154105961322784,89.41600799560547,0.0,-1.4183582067489624,17.97844123840332,-35.63739013671875,0.19136451184749603,89.43435668945312,0.0
1616,-1.0065507888793945,0.0013401508331298828,0.0024204254150390625,0.1281123161315918,0.37760257720947266,-0.01974630355834961,0.0762849897146225,89.84251403808594,0.0,-1.417717695236206,17.980329513549805,-35.637489318847656,0.191208615899086,89.43904113769531,0.0
1621,-1.0036211013793945,0.006711244583129883,0.010965347290039062,0.021242141723632812,-0.03461122512817383,0.04132270812988281,0.38311001658439636,89.26609802246094,0.0,-1.4176114797592163,17.98015594482422,-35.63728332519531,0.19263425469398499,89.43767547607422,0.0
1626,-0.9999589920043945,0.002804994583129883,0.0053501129150390625,0.1281123161315918,-0.019343852996826172,0.10239124298095703,0.16071821749210358,89.65387725830078,0.0,-1.41697096824646,17.980058670043945,-35.63677215576172,0.19305095076560974,89.4390640258789,0.0
1631,-1.0055742263793945,0.004025697708129883,0.0068149566650390625,-0.2535672187805176,0.255465030670166,-0.17241811752319336,0.22937040030956268,89.54901885986328,0.0,-1.4182387590408325,17.98133659362793,-35.63763427734375,0.19204145669937134,89.44108581542969,0.0
1636,-0.9997148513793945,0.004025697708129883,0.0070590972900390625,0.06704378128051758,-0.18728303909301758,-0.27928829193115234,0.23071427643299103,89.53427124023438,0.0,-1.4179035425186157,17.98040008544922,-35.63903045654297,0.1926400512456894,89.4407958984375,0.0
1641,-0.9967851638793945,0.002072572708129883,0.018289566040039062,-0.23829984664916992,-0.3399543762207031,-0.30982255935668945,0.11911243945360184,88.94210052490234,0.0,-1.4190950393676758,17.978700637817383,-35.64057922363281,0.19095182418823242,89.43568420410156,0.0
1646,-1.0053300857543945,0.003049135208129883,0.013406753540039062,-0.024559497833251953,-0.04987812042236328,-0.004478931427001953,0.17376035451889038,89.21646118164062,0.0,-1.419217824935913,17.978450775146484,-35.640602111816406,0.1907118707895279,89.43392944335938,0.0
1651,-1.0006914138793945,0.002316713333129883,0.011453628540039062,0.005974769592285156,-0.08041238784790039,0.0107879638671875,0.13263726234436035,89.3309555053711,0.0,-1.4191879034042358,17.97804832458496,-35.64054870605469,0.19034309685230255,89.43282318115234,0.0
1656,-0.9980058670043945,0.004269838333129883,0.0048618316650390625,-0.29936838150024414,-0.019343852996826172,0.07185697555541992,0.24512813985347748,89.62852478027344,0.0,-1.4206846952438354,17.977951049804688,-35.64019012451172,0.1892322450876236,89.43406677246094,0.0
1661,-1.0031328201293945,-0.002077817916870117,0.0038852691650390625,0.4334559440612793,0.026457786560058594,-0.23348665237426758,-0.11867734044790268,89.74834442138672,0.0,-1.4185174703598022,17.97808265686035,-35.641357421875,0.1892738938331604,89.43634796142578,0.0
1666,-0.9999589920043945,0.0013401508331298828,0.0065708160400390625,0.05177640914916992,0.2249307632446289,-0.11134910583496094,0.07678642868995667,89.61576080322266,0.0,-1.418258547782898,17.97920799255371,-35.64191436767578,0.1887601912021637,89.43869018554688,0.0
1671,-0.9982500076293945,0.0010960102081298828,0.0063266754150390625,-0.13142967224121094,0.20966386795043945,-0.03501319885253906,0.06290555745363235,89.6314697265625,0.0,-1.4189157485961914,17.980257034301758,-35.64208984375,0.18724550306797028,89.44104766845703,0.0
1676,-1.0043535232543945,0.0018284320831298828,0.0011997222900390625,0.06704378128051758,0.40813684463500977,-0.1876850128173828,0.1043071448802948,89.875244140625,0.0,-1.4185805320739746,17.982297897338867,-35.643028259277344,0.18701055645942688,89.446044921875,0.0
1681,-0.9987382888793945,-0.002077817916870117,0.0046176910400390625,0.021242141723632812,0.10279369354248047,-0.17241811752319336,-0.11919914931058884,89.70951080322266,0.0,-1.4184743165969849,17.982810974121094,-35.643890380859375,0.185020312666893,89.44835662841797,0.0
1686,-0.9967851638793945,0.0010960102081298828,0.0029087066650390625,0.38765430450439453,-0.06514549255371094,0.23979568481445312,0.06299899518489838,89.82133483886719,0.0,-1.4165360927581787,17.982484817504883,-35.64269256591797,0.18611052632331848,89.4505844116211,0.0
1691,-1.0043535232543945,0.0003635883331298828,0.009744644165039062,0.1281123161315918,-0.3857560157775879,0.16345977783203125,0.020740799605846405,89.4437255859375,0.0,-1.4158955812454224,17.98055648803711,-35.641876220703125,0.18561577796936035,89.44862365722656,0.0
1696,-1.0036211013793945,0.0018284320831298828,0.008523941040039062,-0.13142967224121094,-0.03461122512817383,0.10239124298095703,0.1043795794248581,89.5023193359375,0.0,-1.4165527820587158,17.980382919311523,-35.64136505126953,0.1844077855348587,89.44881439208984,0.0
1701,-0.9999589920043945,0.007931947708129883,0.015359878540039062,-0.07036113739013672,-0.04987812042236328,0.10239124298095703,0.45442262291908264,89.00958251953125,0.0,-1.4169045686721802,17.980133056640625,-35.64085388183594,0.18590356409549713,89.44556427001953,0.0
1706,-1.0072832107543945,0.007199525833129883,0.0051059722900390625,0.28078413009643555,-0.04987812042236328,0.423001766204834,0.4095076024532318,89.49795532226562,0.0,-1.4155006408691406,17.979883193969727,-35.63874053955078,0.1888253539800644,89.44567108154297,0.0
1711,-1.0014238357543945,0.0006077289581298828,0.0033969879150390625,0.08231067657470703,-0.15674829483032227,0.22452878952026367,0.03477059304714203,89.80255889892578,0.0,-1.4150891304016113,17.97909927368164,-35.63761901855469,0.18818213045597076,89.44732666015625,0.0
1716,-0.9962968826293945,0.002804994583129883,0.010232925415039062,0.06704378128051758,0.011190414428710938,-0.1266164779663086,0.16130277514457703,89.38983154296875,0.0,-1.4147539138793945,17.979154586791992,-35.63825225830078,0.18833157420158386,89.44699096679688,0.0
1721,-1.0024003982543945,0.003537416458129883,0.0068149566650390625,-0.3146357536315918,-0.2483515739440918,0.10239124298095703,0.202188178896904,89.56112670898438,0.0,-1.4163271188735962,17.97791290283203,-35.63774108886719,0.18686369061470032,89.446533203125,0.0
1726,-0.9960527420043945,0.003781557083129883,0.011941909790039062,-0.1466965675354004,-0.15674829483032227,0.08712387084960938,0.2175092101097107,89.27948760986328,0.0,-1.4170606136322021,17.977128982543945,-35.637306213378906,0.18634425103664398,89.44461059570312,0.0
1731,-0.9994707107543945,0.004758119583129883,0.011941909790039062,0.08231067657470703,0.011190414428710938,0.3924674987792969,0.27274301648139954,89.26311492919922,0.0,-1.4166491031646729,17.977184295654297,-35.635345458984375,0.18734213709831238,89.44342803955078,0.0
1736,-1.0043535232543945,0.007443666458129883,0.0048618316650390625,0.08231067657470703,-0.18728303909301758,-0.1266164779663086,0.42462924122810364,89.4928207397461,0.0,-1.4162375926971436,17.976247787475586,-35.63597869873047,0.1893683522939682,89.44283294677734,0.0
1741,-0.9960527420043945,0.0018284320831298828,0.0041294097900390625,0.1281123161315918,-0.03461122512817383,0.2855973243713379,0.10517557710409164,89.74021911621094,0.0,-1.4155970811843872,17.97607421875,-35.634552001953125,0.189430832862854,89.44468688964844,0.0
1746,-1.0019121170043945,0.0006077289581298828,0.0075473785400390625,-0.22303247451782227,-0.09567975997924805,0.20926141738891602,0.03475286066532135,89.56700134277344,0.0,-1.4167122840881348,17.975595474243164,-35.633506774902344,0.18726961314678192,89.4450454711914,0.0
1752,-1.0067949295043945,0.006711244583129883,0.016336441040039062,0.021242141723632812,-0.15674829483032227,0.2550630569458008,0.38187485933303833,88.9950180053711,0.0,-1.416606068611145,17.974811553955078,-35.632232666015625,0.18870030343532562,89.44120025634766,0.0
1757,-0.9958086013793945,0.0015842914581298828,0.009744644165039062,0.03650951385498047,0.11806058883666992,-0.30982255935668945,0.09115084260702133,89.43197631835938,0.0,-1.4163869619369507,17.97551918029785,-35.634090423583984,0.18825192749500275,89.44184112548828,0.0
1762,-0.9975175857543945,0.004269838333129883,0.018045425415039062,-0.26883411407470703,-0.309420108795166,-0.08081483840942383,0.2452109158039093,88.93500518798828,0.0,-1.4177311658859253,17.97397232055664,-35.63449478149414,0.18730562925338745,89.43684387207031,0.0
1767,-1.0019121170043945,0.003537416458129883,0.0073032379150390625,0.005974769592285156,0.011190414428710938,-0.1571507453918457,0.2022860050201416,89.53594970703125,0.0,-1.417701244354248,17.974027633666992,-35.63528060913086,0.1874374896287918,89.43757629394531,0.0
1772,-0.9967851638793945,0.005246400833129883,0.0021762847900390625,-0.08562803268432617,-0.17201566696166992,-0.03501319885253906,0.3015626072883606,89.67352294921875,0.0,-1.418129324913025,17.973167419433594,-35.63545608520508,0.18779054284095764,89.4383316040039,0.0
1777,-1.0021562576293945,0.002316713333129883,0.008279800415039062,0.03650951385498047,-0.23308420181274414,-0.38615846633911133,0.13244754076004028,89.50845336914062,0.0,-1.4179468154907227,17.972002029418945,-35.637386322021484,0.18759456276893616,89.43765258789062,0.0
1782,-0.9997148513793945,0.004025697708129883,0.008035659790039062,0.03650951385498047,-0.004076957702636719,-0.27928829193115234,0.23071257770061493,89.48490905761719,0.0,-1.4177643060684204,17.971981048583984,-35.6387825012207,0.18806971609592438,89.43795013427734,0.0
1787,-0.9982500076293945,0.008176088333129883,0.015115737915039062,-0.1466965675354004,0.13332796096801758,0.04132270812988281,0.46921229362487793,89.01372528076172,0.0,-1.4184978008270264,17.97264862060547,-35.63857650756836,0.18925653398036957,89.43572235107422,0.0
1792,-1.0089921951293945,0.005246400833129883,0.0046176910400390625,0.09757804870605469,0.3623356819152832,-0.01974630355834961,0.2979118824005127,89.6031265258789,0.0,-1.418009877204895,17.97446060180664,-35.638675689697266,0.19048108160495758,89.43865966796875,0.0
1797,-1.0021562576293945,0.0008518695831298828,0.008523941040039062,0.05177640914916992,-0.23308420181274414,0.20926141738891602,0.04870174080133438,89.51024627685547,0.0,-1.4177509546279907,17.973295211791992,-35.637630462646484,0.18977294862270355,89.43798828125,0.0
1802,-0.9931230545043945,0.006955385208129883,0.0060825347900390625,0.18918085098266602,0.5760760307312012,0.30086469650268555,0.4012596607208252,89.46694946289062,0.0,-1.4168050289154053,17.97617530822754,-35.63612747192383,0.19215178489685059,89.44104766845703,0.0
1807,-1.0063066482543945,0.0013401508331298828,0.0063266754150390625,-0.11616230010986328,-0.18728303909301758,0.16345977783203125,0.07630221545696259,89.63179016113281,0.0,-1.4173858165740967,17.975238800048828,-35.635311126708984,0.1907867044210434,89.44141387939453,0.0
1812,-1.0016679763793945,0.002560853958129883,0.009012222290039062,0.17391395568847656,0.255465030670166,0.2855973243713379,0.14647555351257324,89.46410369873047,0.0,-1.4165163040161133,17.976516723632812,-35.63388442993164,0.19134896993637085,89.44283294677734,0.0
1817,-0.9975175857543945,0.003781557083129883,0.0033969879150390625,-0.10089540481567383,0.11806058883666992,0.6062078475952148,0.21720415353775024,89.7080307006836,0.0,-1.4170207977294922,17.97710609436035,-35.63085174560547,0.19102372229099274,89.44522094726562,0.0
1822,-1.0033769607543945,0.002316713333129883,0.0075473785400390625,0.005974769592285156,-0.08041238784790039,0.3924674987792969,0.1322871744632721,89.54918670654297,0.0,-1.416990876197815,17.976703643798828,-35.62889099121094,0.19065414369106293,89.44552612304688,0.0
1827,-0.9987382888793945,0.004758119583129883,0.010232925415039062,-0.1772313117980957,0.026457786560058594,0.3772001266479492,0.27294817566871643,89.35262298583984,0.0,-1.4178770780563354,17.976835250854492,-35.62700653076172,0.19033323228359222,89.44502258300781,0.0
1832,-0.9972734451293945,0.0013401508331298828,0.009500503540039062,-0.009292125701904297,-0.2788858413696289,0.2855973243713379,0.07699137926101685,89.44878387451172,0.0,-1.4179235696792603,17.975440979003906,-35.625579833984375,0.18951711058616638,89.44366455078125,0.0
1837,-1.0019121170043945,0.004758119583129883,0.009500503540039062,0.06704378128051758,-0.03461122512817383,0.46880340576171875,0.27208560705184937,89.39239501953125,0.0,-1.4175883531570435,17.97526741027832,-35.62323760986328,0.1904108077287674,89.44314575195312,0.0
1842,-1.0014238357543945,0.0010960102081298828,0.0060825347900390625,0.2960515022277832,-0.43155765533447266,0.423001766204834,0.06270629167556763,89.64639282226562,0.0,-1.4161081314086914,17.97311019897461,-35.621124267578125,0.19101397693157196,89.4423828125,0.0
1847,-0.9992265701293945,-0.0003688335418701172,0.012430191040039062,0.03650951385498047,-0.18728303909301758,-0.08081483840942383,-0.02114732563495636,89.28697204589844,0.0,-1.4159256219863892,17.9721736907959,-35.62152862548828,0.18975526094436646,89.44039916992188,0.0
1852,-1.0050859451293945,0.002804994583129883,0.012430191040039062,0.05177640914916992,-0.2178173065185547,0.20926141738891602,0.15988846123218536,89.27362823486328,0.0,-1.4156666994094849,17.971084594726562,-35.6204833984375,0.18980972468852997,89.43818664550781,0.0
1857,-0.9982500076293945,0.003293275833129883,0.0075473785400390625,0.1586465835571289,0.04172468185424805,0.13292551040649414,0.18901550769805908,89.52737426757812,0.0,-1.414873480796814,17.97129249572754,-35.61981964111328,0.1905921846628189,89.43899536132812,0.0
1862,-0.9970293045043945,0.004025697708129883,0.008768081665039062,0.18918085098266602,0.40813684463500977,0.3924674987792969,0.23133254051208496,89.4455795288086,0.0,-1.4139275550842285,17.97333335876465,-35.61785888671875,0.19180797040462494,89.4410629272461,0.0
1867,-1.0038652420043945,0.003781557083129883,0.009500503540039062,-0.024559497833251953,0.3928699493408203,-0.01974630355834961,0.21582232415676117,89.4164047241211,0.0,-1.4140503406524658,17.975297927856445,-35.617958068847656,0.19184881448745728,89.44284057617188,0.0
1872,-0.9938554763793945,0.002804994583129883,0.0068149566650390625,0.021242141723632812,0.20966386795043945,-0.11134910583496094,0.16170373558998108,89.57514953613281,0.0,-1.413944125175476,17.976346969604492,-35.61851501464844,0.19174998998641968,89.44477844238281,0.0
1877,-0.9989824295043945,0.0015842914581298828,0.008035659790039062,0.1586465835571289,0.07225894927978516,-0.01974630355834961,0.09086266160011292,89.53025817871094,0.0,-1.4131509065628052,17.976707458496094,-35.618614196777344,0.19185419380664825,89.44571685791016,0.0
1882,-1.0045976638793945,0.010861635208129883,0.0063266754150390625,0.05177640914916992,0.34706830978393555,-0.27928829193115234,0.6194412708282471,89.28313446044922,0.0,-1.4128919839859009,17.978443145751953,-35.62001037597656,0.1950080394744873,89.44633483886719,0.0
1887,-0.9989824295043945,0.004269838333129883,0.0055942535400390625,0.08231067657470703,0.14859485626220703,-0.4014253616333008,0.244887575507164,89.59637451171875,0.0,-1.4124804735183716,17.97918701171875,-35.62201690673828,0.19575463235378265,89.44808959960938,0.0
1892,-1.0041093826293945,0.004513978958129883,0.0077915191650390625,-0.23829984664916992,-0.04987812042236328,-0.05028057098388672,0.257563978433609,89.48619842529297,0.0,-1.4136719703674316,17.97893714904785,-35.62226867675781,0.19498972594738007,89.4480972290039,0.0
1897,-1.0048418045043945,0.002316713333129883,0.0033969879150390625,0.05177640914916992,-0.32468748092651367,0.10239124298095703,0.13209731876850128,89.76554870605469,0.0,-1.4134130477905273,17.977313995361328,-35.62175750732422,0.19482110440731049,89.4486312866211,0.0
1903,-0.9980058670043945,0.0006077289581298828,0.0033969879150390625,0.05177640914916992,0.20966386795043945,-0.24875402450561523,0.034889671951532364,89.8018798828125,0.0,-1.413102388381958,17.978572845458984,-35.62324905395508,0.19404418766498566,89.45227813720703,0.0
1908,-1.0028886795043945,0.002560853958129883,0.0048618316650390625,-0.05509376525878906,-0.26361894607543945,0.04132270812988281,0.14630146324634552,89.68606567382812,0.0,-1.4133778810501099,17.97725486755371,-35.623043060302734,0.19344665110111237,89.45255279541016,0.0
1913,-0.9999589920043945,0.005490541458129883,0.0041294097900390625,0.005974769592285156,0.13332796096801758,0.16345977783203125,0.3145919144153595,89.60636138916016,0.0,-1.4133479595184326,17.977922439575195,-35.62222671508789,0.19429808855056763,89.45425415039062,0.0
1918,-1.0009355545043945,0.002316713333129883,0.0063266754150390625,-0.2535672187805176,0.13332796096801758,0.0107879638671875,0.13261094689369202,89.61433410644531,0.0,-1.4146157503128052,17.97859001159668,-35.62217330932617,0.19262053072452545,89.45600128173828,0.0
1923,-1.0043535232543945,0.002316713333129883,0.0073032379150390625,0.1586465835571289,-0.15674829483032227,0.22452878952026367,0.1321588009595871,89.56291961669922,0.0,-1.4138225317001343,17.977806091308594,-35.62105178833008,0.1929984837770462,89.45594787597656,0.0
1928,-0.9997148513793945,0.0013401508331298828,0.012430191040039062,-0.08562803268432617,0.27073240280151367,0.04132270812988281,0.07680090516805649,89.28350830078125,0.0,-1.4142506122589111,17.97916030883789,-35.620845794677734,0.19178567826747894,89.45612335205078,0.0
1933,-0.9994707107543945,0.007687807083129883,0.0068149566650390625,-0.1466965675354004,-0.03461122512817383,0.49933767318725586,0.4406932294368744,89.41107940673828,0.0,-1.414984107017517,17.978986740112305,-35.618350982666016,0.19274376332759857,89.45564270019531,0.0
1938,-1.0028886795043945,0.003293275833129883,0.010232925415039062,-0.009292125701904297,0.04172468185424805,0.43826913833618164,0.18813684582710266,89.38587951660156,0.0,-1.415030598640442,17.97919464111328,-35.61616134643555,0.1926664113998413,89.45537567138672,0.0
1943,-1.0026445388793945,0.003293275833129883,0.011697769165039062,-0.43677330017089844,-0.15674829483032227,-0.03501319885253906,0.1881796419620514,89.30558013916016,0.0,-1.4172145128250122,17.978410720825195,-35.616336822509766,0.19046694040298462,89.45358276367188,0.0
1948,-1.0002031326293945,0.005978822708129883,0.015604019165039062,-0.2535672187805176,-0.2788858413696289,0.08712387084960938,0.3424459993839264,89.04285430908203,0.0,-1.4184823036193848,17.97701644897461,-35.615901947021484,0.19023670256137848,89.44941711425781,0.0
1953,-1.0019121170043945,0.006711244583129883,0.0036411285400390625,-0.2535672187805176,-0.06514549255371094,-0.2640209197998047,0.38378384709358215,89.56336975097656,0.0,-1.4197500944137573,17.9766902923584,-35.61722183227539,0.19028759002685547,89.44985961914062,0.0
1958,-0.9997148513793945,0.003537416458129883,0.0019321441650390625,-0.16196393966674805,-0.06514549255371094,0.026055335998535156,0.20273561775684357,89.76899719238281,0.0,-1.4205598831176758,17.976364135742188,-35.61709213256836,0.18956749141216278,89.45169067382812,0.0
1963,-1.0026445388793945,0.0010960102081298828,0.011209487915039062,0.11284542083740234,-0.2178173065185547,-0.05028057098388672,0.06262718886137009,89.35640716552734,0.0,-1.419995665550232,17.97527503967285,-35.61734390258789,0.1892690509557724,89.44995880126953,0.0
1968,-0.9953203201293945,0.0013401508331298828,0.0073032379150390625,-0.039826393127441406,-0.15674829483032227,0.36193323135375977,0.07714388519525528,89.57257843017578,0.0,-1.4201947450637817,17.974491119384766,-35.615535736083984,0.188312828540802,89.45000457763672,0.0
1973,-0.9989824295043945,0.005002260208129883,0.0031528472900390625,-0.2077655792236328,-0.004076957702636719,0.5451393127441406,0.2868965268135071,89.66087341308594,0.0,-1.4212335348129272,17.974470138549805,-35.61280822753906,0.18794769048690796,89.45140838623047,0.0
1978,-0.9992265701293945,0.004513978958129883,0.0063266754150390625,0.20444822311401367,-0.32468748092651367,-0.03501319885253906,0.2588251829147339,89.55436706542969,0.0,-1.4202113151550293,17.97284698486328,-35.61298370361328,0.1894422173500061,89.45049285888672,0.0
1983,-0.9972734451293945,0.008420228958129883,0.008523941040039062,0.20444822311401367,0.11806058883666992,0.13292551040649414,0.4837334156036377,89.31166076660156,0.0,-1.4191890954971313,17.97343635559082,-35.61231994628906,0.1924467831850052,89.45013427734375,0.0
1988,-0.9967851638793945,-0.0003688335418701172,0.009012222290039062,0.021242141723632812,0.026457786560058594,-0.4624943733215332,-0.021199895069003105,89.48155212402344,0.0,-1.4190828800201416,17.973567962646484,-35.61463165283203,0.19110848009586334,89.45047760009766,0.0
1993,-1.0016679763793945,0.002804994583129883,0.0075473785400390625,0.38765430450439453,-0.17201566696166992,-0.14188337326049805,0.16044175624847412,89.53944396972656,0.0,-1.4171446561813354,17.972707748413086,-35.61534118652344,0.19282644987106323,89.45022583007812,0.0
1998,-0.9967851638793945,0.005002260208129883,0.0058383941650390625,0.021242141723632812,0.04172468185424805,-0.01974630355834961,0.2875254154205322,89.5580825805664,0.0,-1.4170384407043457,17.972915649414062,-35.615440368652344,0.19357162714004517,89.45115661621094,0.0
2003,-1.0041093826293945,0.0010960102081298828,0.013650894165039062,-0.10089540481567383,-0.08041238784790039,0.026055335998535156,0.06253395229578018,89.2186050415039,0.0,-1.4175429344177246,17.97251319885254,-35.61531066894531,0.19218561053276062,89.44918823242188,0.0
2008,-1.0014238357543945,0.0010960102081298828,0.010965347290039062,-0.009292125701904297,-0.06514549255371094,0.316131591796875,0.0627036914229393,89.36952209472656,0.0,-1.4175894260406494,17.972187042236328,-35.613731384277344,0.19126521050930023,89.44832611083984,0.0
2013,-1.0038652420043945,0.002804994583129883,0.009256362915039062,-0.1772313117980957,-0.4773592948913574,-0.01974630355834961,0.16008831560611725,89.44798278808594,0.0,-1.41847562789917,17.96980094909668,-35.61383056640625,0.19017457962036133,89.44595336914062,0.0
2018,-0.9960527420043945,0.002560853958129883,0.0019321441650390625,0.38765430450439453,-0.4468250274658203,0.40773487091064453,0.14730697870254517,89.81546783447266,0.0,-1.4165374040603638,17.967567443847656,-35.611793518066406,0.19181044399738312,89.44622802734375,0.0
2023,-1.0024003982543945,0.005734682083129883,0.0068149566650390625,0.1281123161315918,0.11806058883666992,-0.01974630355834961,0.32777512073516846,89.49091339111328,0.0,-1.4158968925476074,17.968156814575195,-35.61189270019531,0.19336412847042084,89.44711303710938,0.0
2028,-0.9972734451293945,0.003293275833129883,0.008035659790039062,0.09757804870605469,0.08752632141113281,0.1481928825378418,0.18919986486434937,89.5010757446289,0.0,-1.415408968925476,17.96859359741211,-35.61115264892578,0.19382064044475555,89.44790649414062,0.0
2033,-0.9975175857543945,0.006467103958129883,0.0051059722900390625,-0.2077655792236328,0.40813684463500977,0.08712387084960938,0.3714497983455658,89.5267333984375,0.0,-1.4164477586746216,17.97063446044922,-35.6107177734375,0.1939869225025177,89.4504623413086,0.0
2038,-1.0048418045043945,0.002316713333129883,-0.0027065277099609375,0.14337968826293945,-0.12621402740478516,0.13292551040649414,0.13209758698940277,89.79685974121094,0.0,-1.4157308340072632,17.970003128051758,-35.61005401611328,0.19428162276744843,89.4521713256836,0.0
2043,-1.0016679763793945,0.002316713333129883,0.011697769165039062,-0.039826393127441406,-0.1109471321105957,0.2855973243713379,0.1325075924396515,89.31791687011719,0.0,-1.415929913520813,17.96944808959961,-35.60862731933594,0.19366732239723206,89.45071411132812,0.0
2049,-1.0006914138793945,0.004269838333129883,0.012918472290039062,0.08231067657470703,-0.03461122512817383,-0.01974630355834961,0.2444528341293335,89.22103118896484,0.0,-1.4155184030532837,17.969274520874023,-35.608726501464844,0.19441844522953033,89.44898986816406,0.0
2054,-1.0031328201293945,0.0015842914581298828,0.0075473785400390625,0.20444822311401367,-0.32468748092651367,0.026055335998535156,0.09048709273338318,89.55953216552734,0.0,-1.4142917394638062,17.967327117919922,-35.60857009887695,0.19493436813354492,89.44780731201172,0.0
2059,-0.9916582107543945,0.002316713333129883,0.013650894165039062,0.20444822311401367,-0.03461122512817383,0.36193323135375977,0.13384155929088593,89.20005798339844,0.0,-1.4132695198059082,17.967153549194336,-35.60676193237305,0.19553686678409576,89.44596099853516,0.0
2064,-0.9989824295043945,0.005246400833129883,0.010232925415039062,0.1586465835571289,0.08752632141113281,-0.3556241989135742,0.30088427662849426,89.34048461914062,0.0,-1.4124763011932373,17.96759033203125,-35.60853958129883,0.19703646004199982,89.4456787109375,0.0
2069,-1.0043535232543945,0.004513978958129883,0.008523941040039062,-0.009292125701904297,-0.1109471321105957,0.10239124298095703,0.2574998438358307,89.44977569580078,0.0,-1.412522792816162,17.9670352935791,-35.608028411865234,0.19739870727062225,89.44515228271484,0.0
2074,-0.9970293045043945,-0.0006129741668701172,0.0051059722900390625,0.14337968826293945,0.07225894927978516,-0.1876850128173828,-0.03522501140832901,89.70447540283203,0.0,-1.4118058681488037,17.967395782470703,-35.60896682739258,0.19653984904289246,89.44725799560547,0.0
2079,-1.0038652420043945,0.006222963333129883,0.0058383941650390625,0.18918085098266602,-0.2483515739440918,0.20926141738891602,0.35516613721847534,89.51299285888672,0.0,-1.4108599424362183,17.966154098510742,-35.6079216003418,0.19855034351348877,89.44646453857422,0.0
2084,-1.0045976638793945,0.005002260208129883,0.0043735504150390625,-0.10089540481567383,-0.004076957702636719,0.20926141738891602,0.2852916419506073,89.62104034423828,0.0,-1.4113644361495972,17.96613311767578,-35.606876373291016,0.1986347883939743,89.44761657714844,0.0
2089,-0.9994707107543945,0.0010960102081298828,0.012186050415039062,-0.009292125701904297,-0.20254993438720703,0.36193323135375977,0.06282532215118408,89.29863739013672,0.0,-1.411410927772522,17.965120315551758,-35.60506820678711,0.19767209887504578,89.44560241699219,0.0
2094,-1.0011796951293945,0.002560853958129883,0.0060825347900390625,-0.024559497833251953,0.11806058883666992,0.3924674987792969,0.14655020833015442,89.62232208251953,0.0,-1.4115337133407593,17.965709686279297,-35.60310745239258,0.19720518589019775,89.44738006591797,0.0
2099,-1.0026445388793945,0.005002260208129883,0.009988784790039062,-0.1772313117980957,0.17912960052490234,-0.03501319885253906,0.2858358919620514,89.36164855957031,0.0,-1.4124199151992798,17.96660614013672,-35.6032829284668,0.1969229131937027,89.44768524169922,0.0
2104,-0.9943437576293945,0.00011944770812988281,0.012430191040039062,-0.1772313117980957,-0.2483515739440918,0.1481928825378418,0.006882242392748594,89.28375244140625,0.0,-1.4133061170578003,17.965364456176758,-35.602542877197266,0.1947609782218933,89.44534301757812,0.0
2109,-0.9967851638793945,0.0008518695831298828,0.0026645660400390625,-0.11616230010986328,-0.08041238784790039,0.2855973243713379,0.04896576330065727,89.83920288085938,0.0,-1.4138869047164917,17.964962005615234,-35.60111618041992,0.193200945854187,89.44759368896484,0.0
2114,-1.0004472732543945,0.005978822708129883,0.010721206665039062,-0.08562803268432617,-0.46209192276000977,-0.1876850128173828,0.3423844277858734,89.29701232910156,0.0,-1.4143149852752686,17.9626522064209,-35.602054595947266,0.19378148019313812,89.44428253173828,0.0
2119,-0.9943437576293945,0.004758119583129883,0.0055942535400390625,0.021242141723632812,0.24019813537597656,-0.1266164779663086,0.2741645276546478,89.57682800292969,0.0,-1.4142087697982788,17.96385383605957,-35.60268783569336,0.19442881643772125,89.44636535644531,0.0
2124,-1.0036211013793945,0.0015842914581298828,0.0036411285400390625,0.021242141723632812,0.08752632141113281,0.22452878952026367,0.09044503420591354,89.77330780029297,0.0,-1.414102554321289,17.964290618896484,-35.601566314697266,0.19383352994918823,89.4489974975586,0.0
2129,-1.0014238357543945,-0.0001246929168701172,0.0038852691650390625,0.18918085098266602,0.1638622283935547,0.10239124298095703,-0.007134166080504656,89.77759552001953,0.0,-1.4131566286087036,17.965110778808594,-35.60105514526367,0.19341892004013062,89.45201873779297,0.0
2134,-0.9940996170043945,0.002560853958129883,0.013162612915039062,-0.1772313117980957,0.011190414428710938,-0.1876850128173828,0.1475837379693985,89.22718048095703,0.0,-1.4140428304672241,17.965166091918945,-35.601993560791016,0.19222994148731232,89.45055389404297,0.0
2139,-1.0021562576293945,0.002316713333129883,0.0033969879150390625,0.38765430450439453,0.4234042167663574,-0.09608221054077148,0.13245129585266113,89.76492309570312,0.0,-1.412104606628418,17.967283248901367,-35.602474212646484,0.19375251233577728,89.45477294921875,0.0
2144,-1.0028886795043945,0.003293275833129883,0.0029087066650390625,0.14337968826293945,0.20966386795043945,0.08712387084960938,0.18814584612846375,89.74897766113281,0.0,-1.4113876819610596,17.968332290649414,-35.6020393371582,0.19442681968212128,89.45779418945312,0.0
2149,-0.9977617263793945,0.004269838333129883,0.017313003540039062,-0.07036113739013672,-0.09567975997924805,0.0107879638671875,0.24515412747859955,88.97613525390625,0.0,-1.411739468574524,17.967853546142578,-35.601985931396484,0.19441893696784973,89.45407104492188,0.0
2154,-1.0041093826293945,0.004513978958129883,0.0033969879150390625,0.09757804870605469,0.14859485626220703,0.10239124298095703,0.2575702667236328,89.67764282226562,0.0,-1.4112515449523926,17.968597412109375,-35.60147476196289,0.19532868266105652,89.45631408691406,0.0
2159,-0.9999589920043945,0.0008518695831298828,0.0038852691650390625,-0.05509376525878906,-0.2788858413696289,0.0107879638671875,0.04881015419960022,89.7720947265625,0.0,-1.4115270376205444,17.96720314025879,-35.60142135620117,0.19406887888908386,89.4570541381836,0.0
2164,-0.9962968826293945,0.0006077289581298828,0.017801284790039062,0.005974769592285156,0.1943964958190918,0.13292551040649414,0.03494414687156677,88.97578430175781,0.0,-1.4114971160888672,17.968175888061523,-35.60075759887695,0.19302769005298615,89.45478057861328,0.0
2169,-1.0067949295043945,-0.0001246929168701172,0.010965347290039062,-0.05509376525878906,-0.019343852996826172,-0.06554794311523438,-0.007095739245414734,89.3759536743164,0.0,-1.411772608757019,17.96807861328125,-35.6010856628418,0.19140753149986267,89.45415496826172,0.0
2174,-0.9992265701293945,0.00011944770812988281,0.010965347290039062,0.4029216766357422,0.04172468185424805,0.11765861511230469,0.006848734337836504,89.37123107910156,0.0,-1.4097579717636108,17.968286514282227,-35.60049819946289,0.19216696918010712,89.45380401611328,0.0
2179,-0.9980058670043945,0.006467103958129883,0.015848159790039062,0.28078413009643555,0.3928699493408203,-0.03501319885253906,0.37122613191604614,89.01741027832031,0.0,-1.4083540439605713,17.970251083374023,-35.60067367553711,0.1947658658027649,89.45281982421875,0.0
2184,-1.0082597732543945,0.003049135208129883,0.0046176910400390625,-0.024559497833251953,0.13332796096801758,0.23979568481445312,0.17326904833316803,89.68555450439453,0.0,-1.4084768295288086,17.970918655395508,-35.5994758605957,0.19449931383132935,89.45504760742188,0.0
2189,-0.9975175857543945,-0.0001246929168701172,0.0063266754150390625,0.1281123161315918,-0.20254993438720703,0.46880340576171875,-0.007162013091146946,89.63654327392578,0.0,-1.4078363180160522,17.969905853271484,-35.59713363647461,0.19377955794334412,89.45526123046875,0.0
2195,-0.9955644607543945,0.004269838333129883,0.011941909790039062,0.20444822311401367,-0.37048912048339844,0.27032995223999023,0.24571450054645538,89.27015686035156,0.0,-1.4068140983581543,17.968053817749023,-35.59578323364258,0.19514408707618713,89.45217895507812,0.0
2200,-1.0077714920043945,0.006467103958129883,0.0060825347900390625,0.31131839752197266,0.13332796096801758,0.3924674987792969,0.36766859889030457,89.49525451660156,0.0,-1.404946208000183,17.968852996826172,-35.59342956542969,0.19816245138645172,89.45326232910156,0.0
2205,-0.9943437576293945,0.003293275833129883,0.0073032379150390625,0.3723874092102051,-0.20254993438720703,-0.08081483840942383,0.18975834548473358,89.53837585449219,0.0,-1.4030842781066895,17.96784019470215,-35.593833923339844,0.19995518028736115,89.45282745361328,0.0
2210,-0.9943437576293945,0.0003635883331298828,0.008768081665039062,0.1586465835571289,-0.019343852996826172,0.22452878952026367,0.02094976231455803,89.49434661865234,0.0,-1.4022910594940186,17.967742919921875,-35.59271240234375,0.1995367854833603,89.45301055908203,0.0
2215,-1.0087480545043945,0.004269838333129883,0.010965347290039062,0.38765430450439453,-0.1109471321105957,0.07185697555541992,0.24250634014606476,89.33165740966797,0.0,-1.4003528356552124,17.967187881469727,-35.59235382080078,0.2017515003681183,89.4516372680664,0.0
2220,-0.9962968826293945,0.0008518695831298828,0.008035659790039062,0.05177640914916992,-0.23308420181274414,-0.05028057098388672,0.04898834228515625,89.5353012084961,0.0,-1.400093913078308,17.966022491455078,-35.59260559082031,0.2009795755147934,89.45104217529297,0.0
2225,-1.0053300857543945,0.004269838333129883,0.0043735504150390625,0.2655167579650879,-0.17201566696166992,0.40773487091064453,0.24334289133548737,89.65165710449219,0.0,-1.398766279220581,17.96516227722168,-35.59056854248047,0.20258353650569916,89.4515380859375,0.0
2230,-1.0041093826293945,0.005978822708129883,0.012186050415039062,-0.10089540481567383,-0.12621402740478516,0.2855973243713379,0.34113019704818726,89.22550964355469,0.0,-1.39927077293396,17.96453094482422,-35.589141845703125,0.20301540195941925,89.44938659667969,0.0
2235,-0.9984941482543945,0.003049135208129883,0.010721206665039062,-0.22303247451782227,-0.23308420181274414,0.20926141738891602,0.17495542764663696,89.36042022705078,0.0,-1.4003859758377075,17.96336555480957,-35.588096618652344,0.20171883702278137,89.4476318359375,0.0
2240,-1.0028886795043945,0.004758119583129883,0.010721206665039062,0.1586465835571289,0.255465030670166,0.33139896392822266,0.2718173563480377,89.32991027832031,0.0,-1.3995927572250366,17.964643478393555,-35.58644104003906,0.20297859609127045,89.44810485839844,0.0
