Time,Acc_low_X,Acc_low_Y,Acc_low_Z,Gyro_low_X,Gyro_low_Y,Gyro_low_Z,Acc_X,Acc_Y,Acc_Z,Gyro_X,Gyro_Y,Gyro_Z,Euler_X,Euler_Y,Euler_Z
5,-2.913818359375,-2.810546875,-3.922119140625,514.0,-456.0,306.0,-29.90838050842285,31.12693214416504,0.0,29.082199096679688,-25.80055046081543,17.313528060913086,-27.587448120117188,28.88717269897461,0.0
10,-2.9111328125,-2.80224609375,-3.923095703125,552.0,-516.0,313.0,-29.839323043823242,31.124767303466797,0.0,29.12433624267578,-25.83993911743164,17.337421417236328,-28.669326782226562,29.963455200195312,0.0
15,-2.912841796875,-2.795166015625,-3.92431640625,540.0,-575.0,313.0,-29.76670265197754,31.156055450439453,0.0,29.165557861328125,-25.883832931518555,17.36131477355957,-29.002553939819336,30.32620620727539,0.0
21,-2.9091796875,-2.795654296875,-3.926513671875,513.0,-601.0,325.0,-29.77311897277832,31.11324691772461,0.0,29.2047176361084,-25.929710388183594,17.386123657226562,-29.16380500793457,30.486480712890625,0.0
26,-2.90966796875,-2.79541015625,-3.924072265625,498.0,-641.0,302.0,-29.779407501220703,31.12870979309082,0.0,29.250335693359375,-25.988428115844727,17.413787841796875,-29.249401092529297,30.56686019897461,0.0
31,-2.899169921875,-2.794921875,-3.921875,489.0,-648.0,324.0,-29.815650939941406,31.04803466796875,0.0,29.28766441345215,-26.037893295288086,17.438520431518555,-29.31203269958496,30.605276107788086,0.0
36,-2.890380859375,-2.791015625,-3.9423828125,482.0,-541.0,308.0,-29.72394371032715,30.895492553710938,0.0,29.324459075927734,-26.079191207885742,17.462032318115234,-29.339006423950195,30.61109161376953,0.0
41,-2.896484375,-2.796142578125,-3.925537109375,497.0,-441.0,323.0,-29.81960105895996,31.00519371032715,0.0,29.362398147583008,-26.112855911254883,17.4866886138916,-29.3656063079834,30.63066864013672,0.0
46,-2.908203125,-2.7978515625,-3.936279296875,512.0,-343.0,314.0,-29.755815505981445,31.0562686920166,0.0,29.40148162841797,-26.139039993286133,17.510658264160156,-29.374055862426758,30.654508590698242,0.0
51,-2.91259765625,-2.793701171875,-3.915771484375,512.0,-352.0,323.0,-29.7891788482666,31.195087432861328,0.0,29.44056510925293,-26.165910720825195,17.535314559936523,-29.380266189575195,30.68422508239746,0.0
56,-2.912353515625,-2.78857421875,-3.9296875,535.0,-369.0,294.0,-29.688146591186523,31.14886474609375,0.0,29.48140525817871,-26.19407844543457,17.557756423950195,-29.371061325073242,30.700763702392578,0.0
61,-2.90966796875,-2.7919921875,-3.920166015625,453.0,-402.0,299.0,-29.765058517456055,31.155908584594727,0.0,29.5159854888916,-26.22476577758789,17.580581665039062,-29.372142791748047,30.71050262451172,0.0
66,-2.910400390625,-2.798828125,-3.924072265625,421.0,-492.0,339.0,-29.807392120361328,31.124650955200195,0.0,29.54812240600586,-26.2623233795166,17.60645866394043,-29.375926971435547,30.707660675048828,0.0
71,-2.90966796875,-2.80615234375,-3.908447265625,445.0,-524.0,309.0,-29.937889099121094,31.16274070739746,0.0,29.58209228515625,-26.302324295043945,17.630046844482422,-29.384511947631836,30.703012466430664,0.0
76,-2.907470703125,-2.804931640625,-3.927490234375,481.0,-535.0,304.0,-29.85618019104004,31.065887451171875,0.0,29.618810653686523,-26.343164443969727,17.65325355529785,-29.381696701049805,30.68909454345703,0.0
81,-2.910400390625,-2.805419921875,-3.9248046875,547.0,-561.0,294.0,-29.862581253051758,31.10138511657715,0.0,29.660566329956055,-26.385988235473633,17.675695419311523,-29.372636795043945,30.674741744995117,0.0
86,-2.912109375,-2.80078125,-3.933349609375,570.0,-555.0,324.0,-29.781824111938477,31.093881607055664,0.0,29.704078674316406,-26.428354263305664,17.700428009033203,-29.35579490661621,30.659564971923828,0.0
91,-2.912353515625,-2.798828125,-3.92822265625,516.0,-596.0,303.0,-29.784658432006836,31.12388801574707,0.0,29.743467330932617,-26.47385025024414,17.72355842590332,-29.34247589111328,30.642454147338867,0.0
96,-2.906005859375,-2.8056640625,-3.93359375,457.0,-575.0,314.0,-29.84221839904785,31.024852752685547,0.0,29.778352737426758,-26.517744064331055,17.747528076171875,-29.33580780029297,30.62105941772461,0.0
101,-2.903076171875,-2.810302734375,-3.92822265625,409.0,-529.0,299.0,-29.913789749145508,31.008102416992188,0.0,29.809574127197266,-26.55812644958496,17.770353317260742,-29.33515167236328,30.602123260498047,0.0
106,-2.90625,-2.81494140625,-3.927001953125,447.0,-469.0,311.0,-29.950057983398438,31.02680015563965,0.0,29.84369659423828,-26.59392738342285,17.79409408569336,-29.332063674926758,30.588340759277344,0.0
111,-2.908447265625,-2.81689453125,-3.925537109375,516.0,-436.0,311.0,-29.966588973999023,31.046205520629883,0.0,29.883085250854492,-26.62721061706543,17.817834854125977,-29.323455810546875,30.577489852905273,0.0
116,-2.906005859375,-2.81201171875,-3.91796875,569.0,-406.0,318.0,-29.961837768554688,31.07213020324707,0.0,29.92652130126953,-26.658203125,17.84210968017578,-29.309829711914062,30.56947898864746,0.0
121,-2.90478515625,-2.802001953125,-3.922607421875,532.0,-440.0,303.0,-29.858301162719727,31.07228660583496,0.0,29.967132568359375,-26.691791534423828,17.8652400970459,-29.29391860961914,30.558382034301758,0.0
126,-2.908447265625,-2.798095703125,-3.92138671875,510.0,-456.0,319.0,-29.817726135253906,31.12137222290039,0.0,30.00606346130371,-26.726600646972656,17.889591217041016,-29.27765655517578,30.54765510559082,0.0
131,-2.90966796875,-2.804931640625,-3.927001953125,447.0,-476.0,313.0,-29.851547241210938,31.087108612060547,0.0,30.040185928344727,-26.762935638427734,17.913484573364258,-29.26710319519043,30.533639907836914,0.0
136,-2.911376953125,-2.81201171875,-3.922607421875,467.0,-517.0,320.0,-29.926677703857422,31.099119186401367,0.0,30.075834274291992,-26.802400588989258,17.937911987304688,-29.257427215576172,30.516775131225586,0.0
141,-2.904541015625,-2.806396484375,-3.919921875,509.0,-511.0,322.0,-29.90877342224121,31.068204879760742,0.0,30.114688873291016,-26.841407775878906,17.962491989135742,-29.243457794189453,30.499055862426758,0.0
146,-2.91015625,-2.803466796875,-3.9189453125,567.0,-508.0,332.0,-29.869924545288086,31.13028907775879,0.0,30.157970428466797,-26.880186080932617,17.987834930419922,-29.2235107421875,30.48362159729004,0.0
151,-2.91162109375,-2.797119140625,-3.927001953125,577.0,-546.0,315.0,-29.7767276763916,31.127952575683594,0.0,30.202016830444336,-26.921865463256836,18.01188087463379,-29.19959831237793,30.46506690979004,0.0
157,-2.901123046875,-2.787353515625,-3.932861328125,486.0,-519.0,316.0,-29.698152542114258,31.041067123413086,0.0,30.239116668701172,-26.961483001708984,18.03600311279297,-29.179988861083984,30.4455509185791,0.0
162,-2.901123046875,-2.790283203125,-3.930419921875,431.0,-485.0,316.0,-29.733983993530273,31.04262351989746,0.0,30.278596878051758,-27.005910873413086,18.06494903564453,-29.15930938720703,30.421445846557617,0.0
167,-2.910400390625,-2.79833984375,-3.923095703125,433.0,-450.0,302.0,-29.807048797607422,31.130325317382812,0.0,30.3116512298584,-27.04026222229004,18.088003158569336,-29.147188186645508,30.409948348999023,0.0
172,-2.9033203125,-2.7998046875,-3.918212890625,475.0,-454.0,331.0,-29.861221313476562,31.085023880004883,0.0,30.347909927368164,-27.074918746948242,18.113269805908203,-29.133342742919922,30.396493911743164,0.0
177,-2.909912109375,-2.796875,-3.9287109375,545.0,-449.0,309.0,-29.772777557373047,31.106496810913086,0.0,30.38951301574707,-27.109193801879883,18.136857986450195,-29.111522674560547,30.383838653564453,0.0
182,-2.90869140625,-2.788330078125,-3.92431640625,555.0,-472.0,270.0,-29.718759536743164,31.14076042175293,0.0,30.4318790435791,-27.14522361755371,18.157468795776367,-29.087520599365234,30.37022590637207,0.0
187,-2.908447265625,-2.787353515625,-3.93115234375,501.0,-474.0,311.0,-29.683135986328125,31.11226463317871,0.0,30.470123291015625,-27.181406021118164,18.181209564208984,-29.066730499267578,30.355472564697266,0.0
192,-2.910400390625,-2.797607421875,-3.916259765625,431.0,-516.0,317.0,-29.8283634185791,31.161869049072266,0.0,30.503023147583008,-27.220794677734375,18.205408096313477,-29.05515480041504,30.33878517150879,0.0
197,-2.9111328125,-2.8046875,-3.922119140625,436.0,-518.0,322.0,-29.86483383178711,31.12148094177246,0.0,30.536306381225586,-27.26033592224121,18.22998809814453,-29.043941497802734,30.320770263671875,0.0
202,-2.9091796875,-2.8125,-3.929443359375,470.0,-531.0,315.0,-29.90977668762207,31.04935646057129,0.0,30.57218360900879,-27.300870895385742,18.2540340423584,-29.03110694885254,30.299890518188477,0.0
207,-2.900390625,-2.810302734375,-3.9306640625,507.0,-518.0,295.0,-29.91192054748535,30.974300384521484,0.0,30.610885620117188,-27.340412139892578,18.276552200317383,-29.015356063842773,30.278169631958008,0.0
212,-2.90771484375,-2.80224609375,-3.927978515625,543.0,-458.0,284.0,-29.829769134521484,31.07411766052246,0.0,30.65233612060547,-27.37537384033203,18.29823112487793,-28.994783401489258,30.263477325439453,0.0
217,-2.908935546875,-2.800048828125,-3.925048828125,511.0,-427.0,328.0,-29.818614959716797,31.10398292541504,0.0,30.691343307495117,-27.407968521118164,18.32326889038086,-28.976360321044922,30.251710891723633,0.0
222,-2.912353515625,-2.806884765625,-3.931884765625,468.0,-443.0,307.0,-29.840837478637695,31.083675384521484,0.0,30.727067947387695,-27.44178581237793,18.346704483032227,-28.96164894104004,30.23810386657715,0.0
227,-2.906982421875,-2.8125,-3.922119140625,431.0,-445.0,312.0,-29.946250915527344,31.061443328857422,0.0,30.759967803955078,-27.47575569152832,18.370521545410156,-28.952001571655273,30.223726272583008,0.0
232,-2.908935546875,-2.816650390625,-3.9208984375,442.0,-439.0,333.0,-29.981882095336914,31.07095718383789,0.0,30.79370880126953,-27.509267807006836,18.39594078063965,-28.94207000732422,30.209928512573242,0.0
237,-2.906005859375,-2.813232421875,-3.923583984375,493.0,-447.0,316.0,-29.949684143066406,31.044450759887695,0.0,30.831342697143555,-27.54339027404785,18.420063018798828,-28.927366256713867,30.194862365722656,0.0
242,-2.909912109375,-2.8125,-3.9140625,533.0,-432.0,319.0,-29.970245361328125,31.121347427368164,0.0,30.87203025817871,-27.576366424560547,18.444414138793945,-28.909984588623047,30.182523727416992,0.0
247,-2.91357421875,-2.805419921875,-3.9228515625,523.0,-459.0,318.0,-29.860946655273438,31.13736343383789,0.0,30.91195297241211,-27.611404418945312,18.46868896484375,-28.890968322753906,30.168371200561523,0.0
252,-2.915283203125,-2.801025390625,-3.921630859375,514.0,-476.0,313.0,-29.821977615356445,31.170909881591797,0.0,30.951189041137695,-27.64773941040039,18.492582321166992,-28.8718204498291,30.153545379638672,0.0
257,-2.912841796875,-2.80126953125,-3.93505859375,464.0,-503.0,335.0,-29.77699851989746,31.091463088989258,0.0,30.986608505249023,-27.68613624572754,18.51815414428711,-28.855520248413086,30.134994506835938,0.0
262,-2.91357421875,-2.80419921875,-3.923583984375,442.0,-504.0,324.0,-29.847204208374023,31.137964248657227,0.0,31.020349502563477,-27.724609375,18.54288673400879,-28.842252731323242,30.117313385009766,0.0
267,-2.91064453125,-2.80419921875,-3.92529296875,486.0,-517.0,295.0,-29.84909439086914,31.105152130126953,0.0,31.057449340820312,-27.764074325561523,18.565404891967773,-28.825632095336914,30.09800148010254,0.0
272,-2.9130859375,-2.798583984375,-3.918212890625,536.0,-524.0,332.0,-29.820940017700195,31.17390251159668,0.0,31.098365783691406,-27.804075241088867,18.590747833251953,-28.804697036743164,30.079517364501953,0.0
277,-2.91162109375,-2.798583984375,-3.92236328125,543.0,-499.0,304.0,-29.808500289916992,31.14335060119629,0.0,31.139816284179688,-27.842166900634766,18.613954544067383,-28.783065795898438,30.062318801879883,0.0
282,-2.910888671875,-2.789794921875,-3.930419921875,527.0,-520.0,322.0,-29.700366973876953,31.12924575805664,0.0,31.18004608154297,-27.881860733032227,18.638534545898438,-28.76069450378418,30.043264389038086,0.0
287,-2.90966796875,-2.79150390625,-3.9296875,497.0,-563.0,318.0,-29.722105026245117,31.116548538208008,0.0,31.217985153198242,-27.924837112426758,18.662809371948242,-28.7410945892334,30.02077293395996,0.0
293,-2.903564453125,-2.796630859375,-3.928955078125,477.0,-560.0,279.0,-29.78870964050293,31.05087661743164,0.0,31.254396438598633,-27.96758460998535,18.684106826782227,-28.724266052246094,29.997406005859375,0.0
298,-2.902099609375,-2.797607421875,-3.932861328125,452.0,-516.0,324.0,-29.78584861755371,31.018436431884766,0.0,31.295801162719727,-28.01485252380371,18.713787078857422,-28.702499389648438,29.969160079956055,0.0
303,-2.9033203125,-2.801025390625,-3.921875,505.0,-482.0,301.0,-29.857080459594727,31.06562614440918,0.0,31.3343505859375,-28.051647186279297,18.736764907836914,-28.684873580932617,29.952239990234375,0.0
308,-2.9033203125,-2.7958984375,-3.9306640625,510.0,-445.0,301.0,-29.776023864746094,31.043668746948242,0.0,31.373281478881836,-28.085617065429688,18.759742736816406,-28.665468215942383,29.937713623046875,0.0
313,-2.907470703125,-2.796630859375,-3.923583984375,510.0,-419.0,309.0,-29.79879379272461,31.10792350769043,0.0,31.412212371826172,-28.11760139465332,18.7833309173584,-28.64649772644043,29.926198959350586,0.0
318,-2.908203125,-2.794677734375,-3.9267578125,504.0,-442.0,306.0,-29.766437530517578,31.106670379638672,0.0,31.450685501098633,-28.151342391967773,18.806690216064453,-28.62746810913086,29.912837982177734,0.0
323,-2.905029296875,-2.796142578125,-3.918212890625,451.0,-481.0,302.0,-29.823692321777344,31.11113739013672,0.0,31.4851131439209,-28.188060760498047,18.829744338989258,-28.6134090423584,29.896560668945312,0.0
328,-2.90625,-2.805419921875,-3.9287109375,482.0,-489.0,320.0,-29.859195709228516,31.048553466796875,0.0,31.521907806396484,-28.22538948059082,18.854171752929688,-28.597551345825195,29.878646850585938,0.0
333,-2.902099609375,-2.80810546875,-3.921630859375,469.0,-537.0,288.0,-29.924253463745117,31.034395217895508,0.0,31.557708740234375,-28.266382217407227,18.876155853271484,-28.583694458007812,29.8569278717041,0.0
338,-2.896728515625,-2.8037109375,-3.92333984375,502.0,-511.0,329.0,-29.89470100402832,30.9936466217041,0.0,31.59602928161621,-28.305389404296875,18.901269912719727,-28.566818237304688,29.836606979370117,0.0
343,-2.90380859375,-2.80419921875,-3.9287109375,497.0,-492.0,322.0,-29.855777740478516,31.0310001373291,0.0,31.633968353271484,-28.342947006225586,18.92584991455078,-28.549694061279297,29.818374633789062,0.0
348,-2.901611328125,-2.8037109375,-3.92431640625,511.0,-447.0,311.0,-29.875993728637695,31.03209114074707,0.0,31.672975540161133,-28.3770694732666,18.9495906829834,-28.53183364868164,29.803579330444336,0.0
353,-2.909912109375,-2.807861328125,-3.927978515625,486.0,-458.0,325.0,-29.872669219970703,31.076126098632812,0.0,31.71007537841797,-28.412031173706055,18.97439956665039,-28.515810012817383,29.788616180419922,0.0
358,-2.908203125,-2.808349609375,-3.930908203125,486.0,-453.0,315.0,-29.870201110839844,31.04726219177246,0.0,31.747175216674805,-28.446611404418945,18.998445510864258,-28.499732971191406,29.77357292175293,0.0
363,-2.9091796875,-2.805908203125,-3.923095703125,481.0,-486.0,347.0,-29.877525329589844,31.0965633392334,0.0,31.783893585205078,-28.48371124267578,19.024934768676758,-28.484127044677734,29.756772994995117,0.0
368,-2.904296875,-2.80810546875,-3.923583984375,484.0,-489.0,308.0,-29.909652709960938,31.04521942138672,0.0,31.82084083557129,-28.521039962768555,19.048446655273438,-28.46875,29.738998413085938,0.0
373,-2.90869140625,-2.802978515625,-3.92529296875,519.0,-484.0,323.0,-29.84421157836914,31.091869354248047,0.0,31.860458374023438,-28.557987213134766,19.073102951049805,-28.44976234436035,29.722312927246094,0.0
378,-2.908203125,-2.80322265625,-3.925537109375,499.0,-504.0,313.0,-29.846845626831055,31.085826873779297,0.0,31.898550033569336,-28.596460342407227,19.096996307373047,-28.432353973388672,29.704044342041016,0.0
383,-2.906005859375,-2.802978515625,-3.927490234375,507.0,-497.0,308.0,-29.84336280822754,31.059080123901367,0.0,31.937252044677734,-28.6343994140625,19.120508193969727,-28.414310455322266,29.685955047607422,0.0
388,-2.906982421875,-2.798095703125,-3.926025390625,487.0,-487.0,320.0,-29.803281784057617,31.0887451171875,0.0,31.974428176879883,-28.67157554626465,19.144935607910156,-28.397233963012695,29.6690731048584,0.0
393,-2.90966796875,-2.798583984375,-3.928955078125,501.0,-486.0,346.0,-29.787609100341797,31.098115921020508,0.0,32.012672424316406,-28.708675384521484,19.171348571777344,-28.37890625,29.65241241455078,0.0
398,-2.9072265625,-2.795654296875,-3.923095703125,505.0,-487.0,336.0,-29.792884826660156,31.110870361328125,0.0,32.05122375488281,-28.745851516723633,19.196996688842773,-28.360389709472656,29.6358642578125,0.0
403,-2.9052734375,-2.798828125,-3.934814453125,507.0,-485.0,310.0,-29.779163360595703,31.03404426574707,0.0,32.089927673339844,-28.782875061035156,19.220661163330078,-28.34157943725586,29.61842918395996,0.0
408,-2.91259765625,-2.792724609375,-3.93017578125,488.0,-469.0,333.0,-29.72211456298828,31.13625144958496,0.0,32.12717819213867,-28.818675994873047,19.24608039855957,-28.323476791381836,29.603612899780273,0.0
413,-2.905517578125,-2.80126953125,-3.92822265625,498.0,-458.0,307.0,-29.826772689819336,31.056903839111328,0.0,32.165191650390625,-28.8536376953125,19.269515991210938,-28.30607032775879,29.588550567626953,0.0
418,-2.910888671875,-2.796875,-3.925537109375,497.0,-485.0,305.0,-29.782724380493164,31.12859535217285,0.0,32.203128814697266,-28.890661239624023,19.29279899597168,-28.28818130493164,29.572402954101562,0.0
423,-2.9091796875,-2.800048828125,-3.928466796875,487.0,-476.0,295.0,-29.80398941040039,31.091487884521484,0.0,32.24030303955078,-28.9269962310791,19.315317153930664,-28.2713623046875,29.556455612182617,0.0
429,-2.91162109375,-2.800048828125,-3.92431640625,498.0,-501.0,327.0,-29.81349754333496,31.130510330200195,0.0,32.278316497802734,-28.965240478515625,19.34027862548828,-28.253860473632812,29.539140701293945,0.0
434,-2.9072265625,-2.800048828125,-3.9248046875,487.0,-487.0,337.0,-29.82475471496582,31.090137481689453,0.0,32.32292556762695,-29.009851455688477,19.37114906311035,-28.230052947998047,29.515077590942383,0.0
439,-2.90869140625,-2.79736328125,-3.9111328125,499.0,-495.0,307.0,-29.85223960876465,31.169713973999023,0.0,32.36101531982422,-29.047637939453125,19.39458465576172,-28.21314239501953,29.498882293701172,0.0
444,-2.909912109375,-2.7978515625,-3.929931640625,472.0,-497.0,328.0,-29.776445388793945,31.098295211791992,0.0,32.39704513549805,-29.0855770111084,19.41962242126465,-28.197328567504883,29.481639862060547,0.0
449,-2.905517578125,-2.80126953125,-3.922119140625,506.0,-501.0,303.0,-29.851613998413086,31.082998275756836,0.0,32.435672760009766,-29.123821258544922,19.442752838134766,-28.179906845092773,29.463932037353516,0.0
454,-2.90966796875,-2.8017578125,-3.932373046875,505.0,-498.0,318.0,-29.801733016967773,31.073835372924805,0.0,32.47422409057617,-29.161836624145508,19.46702766418457,-28.161968231201172,29.446372985839844,0.0
459,-2.90771484375,-2.80224609375,-3.929443359375,469.0,-488.0,340.0,-29.823814392089844,31.06785774230957,0.0,32.51002502441406,-29.19908905029297,19.49298095703125,-28.147056579589844,29.42953109741211,0.0
464,-2.905029296875,-2.802001953125,-3.925537109375,489.0,-529.0,326.0,-29.84563636779785,31.061893463134766,0.0,32.5473518371582,-29.239471435546875,19.517866134643555,-28.130903244018555,29.40955352783203,0.0
469,-2.9072265625,-2.802001953125,-3.927734375,497.0,-499.0,308.0,-29.830078125,31.071651458740234,0.0,32.585289001464844,-29.277563095092773,19.541378021240234,-28.113975524902344,29.392024993896484,0.0
474,-2.909912109375,-2.8056640625,-3.924560546875,479.0,-449.0,302.0,-29.867202758789062,31.097429275512695,0.0,32.62185287475586,-29.311838150024414,19.56443214416504,-28.098876953125,29.378616333007812,0.0
479,-2.906982421875,-2.8076171875,-3.92724609375,492.0,-479.0,317.0,-29.882326126098633,31.054485321044922,0.0,32.65940856933594,-29.348403930664062,19.58863067626953,-28.08298110961914,29.3624210357666,0.0
484,-2.90869140625,-2.80224609375,-3.926513671875,492.0,-449.0,316.0,-29.83278465270996,31.088884353637695,0.0,32.696964263916016,-29.382678985595703,19.61275291442871,-28.066513061523438,29.348920822143555,0.0
489,-2.911376953125,-2.8037109375,-3.92529296875,509.0,-480.0,304.0,-29.842578887939453,31.113019943237305,0.0,32.73582077026367,-29.419321060180664,19.63595962524414,-28.048900604248047,29.333354949951172,0.0
494,-2.9111328125,-2.8037109375,-3.9248046875,493.0,-486.0,298.0,-29.845300674438477,31.11298179626465,0.0,32.77345275878906,-29.4564208984375,19.658708572387695,-28.032564163208008,29.317352294921875,0.0
499,-2.908203125,-2.808349609375,-3.921142578125,497.0,-486.0,318.0,-29.90995979309082,31.08893585205078,0.0,32.8113899230957,-29.493520736694336,19.6829833984375,-28.016695022583008,29.30109405517578,0.0
504,-2.90771484375,-2.802734375,-3.92431640625,482.0,-484.0,334.0,-29.848974227905273,31.088281631469727,0.0,32.848182678222656,-29.530467987060547,19.708478927612305,-28.001272201538086,29.285005569458008,0.0
509,-2.907958984375,-2.7998046875,-3.923583984375,505.0,-519.0,330.0,-29.82535743713379,31.102487564086914,0.0,32.88673400878906,-29.570085525512695,19.73366928100586,-27.983861923217773,29.266464233398438,0.0
514,-2.906005859375,-2.80224609375,-3.921630859375,499.0,-499.0,321.0,-29.86075210571289,31.08635902404785,0.0,32.92482376098633,-29.608177185058594,19.7581729888916,-27.967342376708984,29.249303817749023,0.0
519,-2.90673828125,-2.800537109375,-3.923583984375,516.0,-479.0,333.0,-29.83550262451172,31.08961296081543,0.0,32.96421432495117,-29.644742965698242,19.783592224121094,-27.94928550720215,29.233726501464844,0.0
524,-2.90380859375,-2.799560546875,-3.933837890625,497.0,-465.0,303.0,-29.793991088867188,31.02322769165039,0.0,33.00215148925781,-29.680238723754883,19.80672264099121,-27.932249069213867,29.218494415283203,0.0
529,-2.902587890625,-2.797607421875,-3.927001953125,491.0,-478.0,325.0,-29.808218002319336,31.047739028930664,0.0,33.03963088989258,-29.71672821044922,19.831531524658203,-27.915863037109375,29.202573776245117,0.0
534,-2.904296875,-2.797607421875,-3.9267578125,490.0,-483.0,310.0,-29.80406951904297,31.06368637084961,0.0,33.07703399658203,-29.753599166870117,19.855195999145508,-27.899539947509766,29.186481475830078,0.0
539,-2.9033203125,-2.798583984375,-3.92626953125,505.0,-489.0,329.0,-29.8176212310791,31.054283142089844,0.0,33.11558532714844,-29.79092788696289,19.88031005859375,-27.882265090942383,29.16986656188965,0.0
544,-2.90771484375,-2.79541015625,-3.92626953125,512.0,-482.0,304.0,-29.7763614654541,31.10227394104004,0.0,33.15467071533203,-29.827722549438477,19.90351676940918,-27.864057540893555,29.15433692932129,0.0
549,-2.905517578125,-2.79931640625,-3.926513671875,476.0,-478.0,304.0,-29.816482543945312,31.07016372680664,0.0,33.19100570678711,-29.864212036132812,19.92672348022461,-27.849056243896484,29.138790130615234,0.0
554,-2.9052734375,-2.802490234375,-3.9248046875,505.0,-481.0,326.0,-29.852191925048828,31.06566047668457,0.0,33.229557037353516,-29.900930404663086,19.951608657836914,-27.832265853881836,29.122997283935547,0.0
559,-2.90478515625,-2.798583984375,-3.92529296875,488.0,-488.0,332.0,-29.817188262939453,31.07123374938965,0.0,33.266807556152344,-29.938182830810547,19.976951599121094,-27.816425323486328,29.106767654418945,0.0
565,-2.908447265625,-2.801025390625,-3.925048828125,503.0,-492.0,329.0,-29.828704833984375,31.09674835205078,0.0,33.305206298828125,-29.975740432739258,20.002065658569336,-27.799602508544922,29.09054183959961,0.0
570,-2.90673828125,-2.80224609375,-3.924560546875,491.0,-463.0,308.0,-29.846614837646484,31.080219268798828,0.0,33.350181579589844,-30.018152236938477,20.0302791595459,-27.77653694152832,29.069414138793945,0.0
575,-2.9091796875,-2.801025390625,-3.927490234375,479.0,-484.0,333.0,-29.816574096679688,31.09268569946289,0.0,33.38674545288086,-30.055099487304688,20.05569839477539,-27.761585235595703,29.053911209106445,0.0
580,-2.907470703125,-2.804931640625,-3.915283203125,479.0,-506.0,326.0,-29.905895233154297,31.118066787719727,0.0,33.423309326171875,-30.093725204467773,20.080583572387695,-27.747581481933594,29.037038803100586,0.0
585,-2.90625,-2.80419921875,-3.927490234375,491.0,-494.0,311.0,-29.853397369384766,31.057485580444336,0.0,33.46078872680664,-30.13143539428711,20.104324340820312,-27.732139587402344,29.020492553710938,0.0
590,-2.908447265625,-2.798583984375,-3.9248046875,500.0,-468.0,308.0,-29.808143615722656,31.10524559020996,0.0,33.49895477294922,-30.167160034179688,20.127836227416992,-27.7155818939209,29.00644302368164,0.0
595,-2.90966796875,-2.8046875,-3.928466796875,498.0,-507.0,300.0,-29.84343910217285,31.08159637451172,0.0,33.53696823120117,-30.205862045288086,20.150737762451172,-27.699575424194336,28.989221572875977,0.0
600,-2.906005859375,-2.798828125,-3.923583984375,503.0,-481.0,306.0,-29.822620391845703,31.088443756103516,0.0,33.57536697387695,-30.24258041381836,20.174097061157227,-27.683015823364258,28.974082946777344,0.0
605,-2.911865234375,-2.804443359375,-3.92626953125,489.0,-485.0,333.0,-29.843597412109375,31.110857009887695,0.0,33.612693786621094,-30.279603958129883,20.19951629638672,-27.667766571044922,28.95889663696289,0.0
610,-2.912109375,-2.80322265625,-3.91650390625,482.0,-489.0,328.0,-29.87179946899414,31.158504486083984,0.0,33.64948654174805,-30.316932678222656,20.22455406188965,-27.653356552124023,28.943912506103516,0.0
615,-2.9072265625,-2.8056640625,-3.9169921875,484.0,-465.0,329.0,-29.90613555908203,31.10638427734375,0.0,33.686431884765625,-30.352428436279297,20.24966812133789,-27.639156341552734,28.930252075195312,0.0
620,-2.906494140625,-2.804443359375,-3.91943359375,483.0,-478.0,320.0,-29.887622833251953,31.093294143676758,0.0,33.72330093383789,-30.388917922973633,20.27409553527832,-27.62486457824707,28.91549301147461,0.0
625,-2.913818359375,-2.81201171875,-3.927001953125,472.0,-474.0,302.0,-29.90142250061035,31.10161018371582,0.0,33.75933074951172,-30.425100326538086,20.297149658203125,-27.611560821533203,28.901147842407227,0.0
630,-2.90966796875,-2.804443359375,-3.91796875,500.0,-487.0,302.0,-29.883996963500977,31.12722396850586,0.0,33.7974967956543,-30.462276458740234,20.32020378112793,-27.595977783203125,28.88609504699707,0.0
635,-2.91064453125,-2.80419921875,-3.927001953125,503.0,-464.0,313.0,-29.842145919799805,31.09784698486328,0.0,33.83589553833008,-30.497695922851562,20.344097137451172,-27.579795837402344,28.872526168823242,0.0
640,-2.910400390625,-2.80419921875,-3.9296875,478.0,-477.0,303.0,-29.831968307495117,31.084247589111328,0.0,33.87238311767578,-30.534107208251953,20.36722755432129,-27.565446853637695,28.85786247253418,0.0
645,-2.907470703125,-2.802734375,-3.923095703125,493.0,-482.0,306.0,-29.854677200317383,31.091373443603516,0.0,33.91001510620117,-30.57090187072754,20.390586853027344,-27.550207138061523,28.842918395996094,0.0
650,-2.907470703125,-2.80419921875,-3.918212890625,490.0,-498.0,322.0,-29.88749122619629,31.107776641845703,0.0,33.947418212890625,-30.608917236328125,20.4151668548584,-27.53554344177246,28.826955795288086,0.0
655,-2.90771484375,-2.802001953125,-3.91748046875,498.0,-516.0,313.0,-29.870336532592773,31.119766235351562,0.0,33.98543167114258,-30.648305892944336,20.43906021118164,-27.520139694213867,28.809791564941406,0.0
660,-2.91357421875,-2.798095703125,-3.92529296875,503.0,-500.0,327.0,-29.786409378051758,31.1492977142334,0.0,34.02383041381836,-30.686473846435547,20.464021682739258,-27.503597259521484,28.794170379638672,0.0
665,-2.90380859375,-2.797119140625,-3.927490234375,511.0,-501.0,333.0,-29.798246383666992,31.057783126831055,0.0,34.06283950805664,-30.72471809387207,20.48944091796875,-27.486614227294922,28.77764892578125,0.0
670,-2.90283203125,-2.798095703125,-3.932861328125,493.0,-475.0,313.0,-29.787961959838867,31.023338317871094,0.0,34.10047149658203,-30.760976791381836,20.513334274291992,-27.470949172973633,28.7628231048584,0.0
675,-2.9072265625,-2.800537109375,-3.924072265625,490.0,-483.0,313.0,-29.83204460144043,31.091779708862305,0.0,34.137874603271484,-30.797847747802734,20.537227630615234,-27.45596694946289,28.748069763183594,0.0
680,-2.90869140625,-2.799560546875,-3.919677734375,497.0,-470.0,295.0,-29.83687973022461,31.1263427734375,0.0,34.175811767578125,-30.833724975585938,20.55974578857422,-27.44053840637207,28.73465919494629,0.0
685,-2.908203125,-2.79931640625,-3.932861328125,505.0,-474.0,301.0,-29.78261375427246,31.066425323486328,0.0,34.21436309814453,-30.86990737915039,20.58272361755371,-27.424041748046875,28.720413208007812,0.0
690,-2.9072265625,-2.799072265625,-3.934814453125,503.0,-475.0,332.0,-29.77545928955078,31.050315856933594,0.0,34.25276184082031,-30.906166076660156,20.60806655883789,-27.407684326171875,28.705976486206055,0.0
695,-2.908935546875,-2.798583984375,-3.920654296875,469.0,-505.0,319.0,-29.823545455932617,31.127273559570312,0.0,34.2885627746582,-30.94471549987793,20.632417678833008,-27.394393920898438,28.690011978149414,0.0
701,-2.91064453125,-2.797607421875,-3.923095703125,509.0,-503.0,300.0,-29.799840927124023,31.13469123840332,0.0,34.32741928100586,-30.983112335205078,20.655319213867188,-27.377883911132812,28.674314498901367,0.0
706,-2.9052734375,-2.800048828125,-3.918701171875,476.0,-508.0,338.0,-29.85548973083496,31.099225997924805,0.0,34.37102127075195,-31.029645919799805,20.686281204223633,-27.35727882385254,28.650325775146484,0.0
711,-2.90625,-2.802001953125,-3.927978515625,487.0,-470.0,319.0,-29.8320255279541,31.062097549438477,0.0,34.40819549560547,-31.065523147583008,20.71063232421875,-27.342918395996094,28.636680603027344,0.0
716,-2.906982421875,-2.80126953125,-3.9287109375,503.0,-493.0,299.0,-29.82037925720215,31.067583084106445,0.0,34.44659423828125,-31.10315704345703,20.733457565307617,-27.32727813720703,28.621374130249023,0.0
721,-2.910888671875,-2.802490234375,-3.928466796875,496.0,-470.0,298.0,-29.82038688659668,31.09892463684082,0.0,34.48445510864258,-31.139034271240234,20.756206512451172,-27.312213897705078,28.608137130737305,0.0
726,-2.90625,-2.8037109375,-3.9306640625,521.0,-487.0,308.0,-29.836177825927734,31.04542350769043,0.0,34.524227142333984,-31.176210403442383,20.77971839904785,-27.295442581176758,28.593158721923828,0.0
731,-2.912109375,-2.8037109375,-3.927490234375,495.0,-497.0,315.0,-29.831443786621094,31.110000610351562,0.0,34.56201171875,-31.214149475097656,20.80376434326172,-27.28065299987793,28.578044891357422,0.0
736,-2.907470703125,-2.805419921875,-3.927978515625,459.0,-506.0,311.0,-29.85849952697754,31.062314987182617,0.0,34.597049713134766,-31.252775192260742,20.827505111694336,-27.26886749267578,28.561870574951172,0.0
741,-2.9111328125,-2.80517578125,-3.9208984375,471.0,-491.0,331.0,-29.874107360839844,31.125207901000977,0.0,34.63300323486328,-31.29025650024414,20.852771759033203,-27.25632667541504,28.547443389892578,0.0
746,-2.903076171875,-2.803955078125,-3.9287109375,484.0,-497.0,314.0,-29.85582733154297,31.025360107421875,0.0,34.66994857788086,-31.328195571899414,20.876741409301758,-27.242660522460938,28.531719207763672,0.0
751,-2.9072265625,-2.804931640625,-3.923828125,488.0,-510.0,334.0,-29.8718204498291,31.079404830932617,0.0,34.70719909667969,-31.36712646484375,20.902236938476562,-27.228862762451172,28.515541076660156,0.0
756,-2.906494140625,-2.803466796875,-3.92626953125,493.0,-467.0,323.0,-29.851167678833008,31.067060470581055,0.0,34.74483108520508,-31.402774810791016,20.92689323425293,-27.21453857421875,28.502565383911133,0.0
761,-2.908447265625,-2.80517578125,-3.9267578125,480.0,-483.0,304.0,-29.858369827270508,31.0767765045166,0.0,34.781471252441406,-31.439645767211914,20.95009994506836,-27.2012996673584,28.48849105834961,0.0
766,-2.9072265625,-2.8076171875,-3.920654296875,525.0,-476.0,323.0,-29.90843963623047,31.084753036499023,0.0,34.82154846191406,-31.475980758666992,20.974756240844727,-27.185121536254883,28.47505760192871,0.0
771,-2.906494140625,-2.802734375,-3.9296875,472.0,-480.0,324.0,-29.830801010131836,31.0546932220459,0.0,34.85757827758789,-31.512622833251953,20.999488830566406,-27.17233657836914,28.461091995239258,0.0
776,-2.909912109375,-2.804931640625,-3.923828125,476.0,-490.0,309.0,-29.863719940185547,31.102798461914062,0.0,34.89391326904297,-31.55002784729004,21.0230770111084,-27.159561157226562,28.446826934814453,0.0
781,-2.904052734375,-2.801025390625,-3.92041015625,492.0,-498.0,332.0,-29.86083984375,31.078279495239258,0.0,34.93146896362305,-31.588043212890625,21.048419952392578,-27.14557647705078,28.431787490844727,0.0
786,-2.906494140625,-2.796875,-3.93212890625,506.0,-491.0,323.0,-29.769168853759766,31.062095642089844,0.0,34.970096588134766,-31.625524520874023,21.073076248168945,-27.129783630371094,28.41718864440918,0.0
791,-2.903564453125,-2.801025390625,-3.923095703125,498.0,-489.0,315.0,-29.85137176513672,31.062536239624023,0.0,35.00811004638672,-31.662853240966797,21.097122192382812,-27.1153564453125,28.402790069580078,0.0
796,-2.90283203125,-2.7958984375,-3.916259765625,509.0,-460.0,290.0,-29.836124420166016,31.1010799407959,0.0,35.046966552734375,-31.697967529296875,21.119258880615234,-27.100011825561523,28.390960693359375,0.0
801,-2.908447265625,-2.802734375,-3.922119140625,489.0,-456.0,324.0,-29.85570526123047,31.10405921936035,0.0,35.084293365478516,-31.732776641845703,21.143991470336914,-27.086397171020508,28.379484176635742,0.0
806,-2.90966796875,-2.79833984375,-3.91845703125,498.0,-511.0,327.0,-29.828113555908203,31.14381980895996,0.0,35.12230682373047,-31.77178382873535,21.16895294189453,-27.07190704345703,28.364200592041016,0.0
811,-2.90673828125,-2.798095703125,-3.928955078125,506.0,-505.0,302.0,-29.79210662841797,31.074081420898438,0.0,35.16093444824219,-31.810333251953125,21.192007064819336,-27.05655288696289,28.348834991455078,0.0
816,-2.912353515625,-2.7978515625,-3.93017578125,518.0,-518.0,315.0,-29.768117904663086,31.118505477905273,0.0,35.200477600097656,-31.84987449645996,21.216053009033203,-27.040145874023438,28.332916259765625,0.0
821,-2.906982421875,-2.800537109375,-3.925048828125,496.0,-491.0,328.0,-29.828807830810547,31.085474014282227,0.0,35.238338470458984,-31.88735580444336,21.241090774536133,-27.025976181030273,28.318822860717773,0.0
826,-2.90869140625,-2.803466796875,-3.92578125,506.0,-486.0,330.0,-29.846534729003906,31.08829116821289,0.0,35.2769660949707,-31.924455642700195,21.266281127929688,-27.011241912841797,28.30517578125,0.0
831,-2.90966796875,-2.800048828125,-3.924072265625,508.0,-479.0,323.0,-29.820377349853516,31.114543914794922,0.0,35.31574630737305,-31.961021423339844,21.290937423706055,-26.99618911743164,28.29231834411621,0.0
837,-2.909423828125,-2.7998046875,-3.923583984375,515.0,-503.0,311.0,-29.820941925048828,31.115251541137695,0.0,35.35506057739258,-31.999418258666992,21.314678192138672,-26.98066520690918,28.277687072753906,0.0
842,-2.909423828125,-2.801513671875,-3.930908203125,485.0,-487.0,323.0,-29.806262969970703,31.078712463378906,0.0,35.39948654174805,-32.044029235839844,21.344266891479492,-26.960060119628906,28.256694793701172,0.0
847,-2.910400390625,-2.804443359375,-3.921875,499.0,-478.0,339.0,-29.86588478088379,31.116893768310547,0.0,35.43757629394531,-32.08051681518555,21.37014389038086,-26.946331024169922,28.244176864624023,0.0
852,-2.91015625,-2.802978515625,-3.9287109375,472.0,-472.0,307.0,-29.825904846191406,31.090015411376953,0.0,35.47360610961914,-32.116546630859375,21.393579483032227,-26.934358596801758,28.23192596435547,0.0
857,-2.90966796875,-2.805908203125,-3.927734375,485.0,-445.0,298.0,-29.857181549072266,31.08100128173828,0.0,35.51062774658203,-32.150516510009766,21.41632843017578,-26.921688079833984,28.221675872802734,0.0
862,-2.910400390625,-2.806640625,-3.92919921875,511.0,-458.0,319.0,-29.85547637939453,31.078887939453125,0.0,35.54963684082031,-32.18547821044922,21.4406795501709,-26.90707015991211,28.21044158935547,0.0
867,-2.9130859375,-2.8017578125,-3.932861328125,495.0,-463.0,319.0,-29.78948211669922,31.101491928100586,0.0,35.58742141723633,-32.220821380615234,21.465030670166016,-26.89317512512207,28.199039459228516,0.0
872,-2.9091796875,-2.802734375,-3.92333984375,485.0,-468.0,310.0,-29.848529815673828,31.1052188873291,0.0,35.62444305419922,-32.25654602050781,21.48869514465332,-26.880565643310547,28.18731689453125,0.0
877,-2.91259765625,-2.80322265625,-3.923095703125,464.0,-475.0,316.0,-29.843521118164062,31.134536743164062,0.0,35.65986251831055,-32.29280471801758,21.5128173828125,-26.86954116821289,28.17533302307129,0.0
882,-2.906005859375,-2.805908203125,-3.92333984375,501.0,-507.0,337.0,-29.886110305786133,31.067867279052734,0.0,35.6981086730957,-32.33150863647461,21.538541793823242,-26.8560848236084,28.160415649414062,0.0
887,-2.9072265625,-2.802001953125,-3.91845703125,492.0,-511.0,310.0,-29.867834091186523,31.111328125,0.0,35.73566436767578,-32.37051773071289,21.562206268310547,-26.843204498291016,28.145605087280273,0.0
892,-2.90869140625,-2.806640625,-3.923828125,508.0,-497.0,312.0,-29.882476806640625,31.086944580078125,0.0,35.774444580078125,-32.40845489501953,21.586023330688477,-26.82927131652832,28.1317138671875,0.0
897,-2.906005859375,-2.79736328125,-3.9296875,502.0,-510.0,342.0,-29.78486442565918,31.066795349121094,0.0,35.812767028808594,-32.4473876953125,21.612131118774414,-26.815053939819336,28.11672592163086,0.0
902,-2.910888671875,-2.801025390625,-3.92724609375,501.0,-540.0,333.0,-29.812421798706055,31.108612060546875,0.0,35.85101318359375,-32.488609313964844,21.637550354003906,-26.801185607910156,28.0998592376709,0.0
907,-2.9052734375,-2.79931640625,-3.929443359375,510.0,-506.0,309.0,-29.8053035736084,31.055509567260742,0.0,35.88994598388672,-32.52723693847656,21.6611385345459,-26.78662872314453,28.085216522216797,0.0
912,-2.9072265625,-2.799072265625,-3.929443359375,472.0,-495.0,278.0,-29.79727554321289,31.073274612426758,0.0,35.92597579956055,-32.56502151489258,21.68235969543457,-26.774940490722656,28.071605682373047,0.0
917,-2.90283203125,-2.7998046875,-3.930908203125,469.0,-474.0,308.0,-29.810993194580078,31.0264835357666,0.0,35.96177673339844,-32.60120391845703,21.70587158203125,-26.763622283935547,28.059263229370117,0.0
922,-2.90478515625,-2.801513671875,-3.9248046875,488.0,-460.0,312.0,-29.845043182373047,31.06438446044922,0.0,35.999027252197266,-32.63631820678711,21.72968864440918,-26.75116539001465,28.048322677612305,0.0
927,-2.906494140625,-2.80126953125,-3.92333984375,491.0,-449.0,324.0,-29.843700408935547,31.08629035949707,0.0,36.03650665283203,-32.67059326171875,21.75442123413086,-26.73851203918457,28.038415908813477,0.0
932,-2.907470703125,-2.796875,-3.923828125,514.0,-493.0,330.0,-29.799959182739258,31.10613250732422,0.0,36.07574462890625,-32.70822525024414,21.779611587524414,-26.723812103271484,28.02535629272461,0.0
937,-2.905517578125,-2.794921875,-3.9326171875,517.0,-487.0,318.0,-29.75286865234375,31.057437896728516,0.0,36.115211486816406,-32.745399475097656,21.80388641357422,-26.708572387695312,28.01241111755371,0.0
942,-2.904052734375,-2.79736328125,-3.920166015625,479.0,-496.0,327.0,-29.829477310180664,31.090517044067383,0.0,36.15177536010742,-32.783260345458984,21.828847885131836,-26.69687843322754,27.99909210205078,0.0
947,-2.903564453125,-2.80322265625,-3.92626953125,465.0,-513.0,313.0,-29.857839584350586,31.04227066040039,0.0,36.18727111816406,-32.82242202758789,21.852741241455078,-26.686504364013672,27.984155654907227,0.0
952,-2.90625,-2.7998046875,-3.919189453125,484.0,-485.0,310.0,-29.84839630126953,31.106399536132812,0.0,36.22421646118164,-32.85944366455078,21.876405715942383,-26.674640655517578,27.971904754638672,0.0
957,-2.90283203125,-2.8017578125,-3.924560546875,503.0,-473.0,310.0,-29.85407829284668,31.047653198242188,0.0,36.26261520385742,-32.89554977416992,21.900070190429688,-26.661420822143555,27.960145950317383,0.0
962,-2.910400390625,-2.79931640625,-3.92578125,500.0,-460.0,289.0,-29.804759979248047,31.1158447265625,0.0,36.30078125,-32.9306640625,21.922130584716797,-26.64809226989746,27.94994354248047,0.0
967,-2.906494140625,-2.79736328125,-3.927001953125,501.0,-475.0,313.0,-29.794309616088867,31.08254051208496,0.0,36.339027404785156,-32.966922760009766,21.94602394104004,-26.63465690612793,27.938371658325195,0.0
973,-2.90771484375,-2.802001953125,-3.923583984375,468.0,-490.0,323.0,-29.845491409301758,31.093650817871094,0.0,36.374752044677734,-33.00432586669922,21.970680236816406,-26.624170303344727,27.9257869720459,0.0
978,-2.911376953125,-2.80517578125,-3.918701171875,459.0,-490.0,327.0,-29.88231086730957,31.136734008789062,0.0,36.41679763793945,-33.04920959472656,22.000635147094727,-26.607789993286133,27.906221389770508,0.0
983,-2.912353515625,-2.80712890625,-3.927490234375,473.0,-496.0,325.0,-29.860841751098633,31.10169219970703,0.0,36.452903747558594,-33.08707046508789,22.02544403076172,-26.597209930419922,27.893451690673828,0.0
988,-2.9111328125,-2.8056640625,-3.9296875,500.0,-491.0,332.0,-29.84267807006836,31.08615493774414,0.0,36.49106979370117,-33.124549865722656,22.0507869720459,-26.58447265625,27.8809871673584,0.0
993,-2.908935546875,-2.805908203125,-3.92431640625,532.0,-475.0,329.0,-29.873294830322266,31.089221954345703,0.0,36.531681060791016,-33.16080856323242,22.07590103149414,-26.569595336914062,27.86980628967285,0.0
998,-2.91015625,-2.802978515625,-3.919921875,502.0,-476.0,293.0,-29.861642837524414,31.12760353088379,0.0,36.570003509521484,-33.1971435546875,22.0982666015625,-26.556962966918945,27.8588809967041,0.0
1003,-2.912109375,-2.801513671875,-3.92431640625,492.0,-485.0,318.0,-29.824954986572266,31.130285263061523,0.0,36.60755920410156,-33.23416519165039,22.122541427612305,-26.54485321044922,27.847326278686523,0.0
1008,-2.90966796875,-2.802734375,-3.920654296875,472.0,-499.0,303.0,-29.857982635498047,31.120962142944336,0.0,36.64358901977539,-33.272254943847656,22.145671844482422,-26.534555435180664,27.834678649902344,0.0
1013,-2.91064453125,-2.8017578125,-3.924072265625,456.0,-462.0,337.0,-29.832517623901367,31.117828369140625,0.0,36.67839813232422,-33.30752182006836,22.171396255493164,-26.52530288696289,27.824859619140625,0.0
1018,-2.908447265625,-2.804443359375,-3.92138671875,490.0,-462.0,322.0,-29.873767852783203,31.101966857910156,0.0,36.71580123901367,-33.34278869628906,22.19597625732422,-26.513813018798828,27.814945220947266,0.0
1023,-2.91162109375,-2.803955078125,-3.927734375,514.0,-483.0,333.0,-29.834075927734375,31.103961944580078,0.0,36.75503921508789,-33.37965774536133,22.22139549255371,-26.500242233276367,27.803482055664062,0.0
1028,-2.906982421875,-2.8046875,-3.918701171875,538.0,-507.0,289.0,-29.891286849975586,31.099937438964844,0.0,36.79610824584961,-33.41836166381836,22.24345588684082,-26.48534393310547,27.790212631225586,0.0
1033,-2.90966796875,-2.7998046875,-3.9306640625,499.0,-487.0,305.0,-29.79144287109375,31.087087631225586,0.0,36.834197998046875,-33.455535888671875,22.266738891601562,-26.472705841064453,27.778413772583008,0.0
1038,-2.909423828125,-2.79833984375,-3.927001953125,478.0,-503.0,311.0,-29.794118881225586,31.105091094970703,0.0,36.87068557739258,-33.493934631347656,22.29047966003418,-26.461729049682617,27.765583038330078,0.0
1043,-2.90673828125,-2.8017578125,-3.925537109375,478.0,-506.0,343.0,-29.838333129882812,31.077533721923828,0.0,36.90717315673828,-33.532562255859375,22.31666374206543,-26.45112419128418,27.752368927001953,0.0
1048,-2.908447265625,-2.802001953125,-3.92138671875,481.0,-514.0,303.0,-29.852222442626953,31.109432220458984,0.0,36.94388961791992,-33.571800231933594,22.339794158935547,-26.440433502197266,27.738845825195312,0.0
1053,-2.905029296875,-2.801513671875,-3.93017578125,514.0,-515.0,306.0,-29.822450637817383,31.043561935424805,0.0,36.98312759399414,-33.611114501953125,22.3631534576416,-26.427053451538086,27.72480583190918,0.0
1058,-2.901611328125,-2.798583984375,-3.925048828125,495.0,-489.0,298.0,-29.82773780822754,31.04459571838379,0.0,37.020912170410156,-33.648441314697266,22.385902404785156,-26.41520881652832,27.712806701660156,0.0
1063,-2.905029296875,-2.798828125,-3.93115234375,521.0,-451.0,321.0,-29.79477882385254,31.047563552856445,0.0,37.06068420410156,-33.68286895751953,22.4104061126709,-26.401193618774414,27.70375633239746,0.0
1068,-2.90869140625,-2.799560546875,-3.93017578125,470.0,-461.0,316.0,-29.794206619262695,31.0814151763916,0.0,37.096561431884766,-33.71805953979492,22.434528350830078,-26.39109992980957,27.694229125976562,0.0
1073,-2.912353515625,-2.80224609375,-3.9248046875,481.0,-478.0,333.0,-29.828697204589844,31.128084182739258,0.0,37.133277893066406,-33.754547119140625,22.45994758605957,-26.380464553833008,27.683792114257812,0.0
1078,-2.90966796875,-2.801025390625,-3.926513671875,477.0,-486.0,316.0,-29.819072723388672,31.10111427307129,0.0,37.1696891784668,-33.79164505004883,22.48406982421875,-26.370098114013672,27.672582626342773,0.0
1083,-2.91064453125,-2.80029296875,-3.92041015625,480.0,-486.0,318.0,-29.834474563598633,31.137983322143555,0.0,37.206329345703125,-33.82874298095703,22.508344650268555,-26.359655380249023,27.661691665649414,0.0
1088,-2.906005859375,-2.80029296875,-3.926025390625,516.0,-520.0,332.0,-29.82562255859375,31.073530197143555,0.0,37.24571990966797,-33.868438720703125,22.533687591552734,-26.34645652770996,27.647785186767578,0.0
1093,-2.908447265625,-2.7998046875,-3.916748046875,493.0,-502.0,322.0,-29.85169792175293,31.136018753051758,0.0,37.28335189819336,-33.906761169433594,22.55826759338379,-26.335250854492188,27.635770797729492,0.0
1098,-2.908203125,-2.800537109375,-3.927001953125,497.0,-483.0,323.0,-29.817190170288086,31.087757110595703,0.0,37.3212890625,-33.94363021850586,22.582923889160156,-26.323528289794922,27.62488555908203,0.0
1103,-2.904052734375,-2.80322265625,-3.927490234375,474.0,-469.0,279.0,-29.851398468017578,31.04131507873535,0.0,37.35747146606445,-33.97943115234375,22.60422134399414,-26.313852310180664,27.61475944519043,0.0
1109,-2.905029296875,-2.805908203125,-3.928466796875,468.0,-474.0,320.0,-29.86817169189453,31.037471771240234,0.0,37.39319610595703,-34.0156135559082,22.62864875793457,-26.304786682128906,27.60426139831543,0.0
1114,-2.906494140625,-2.80712890625,-3.9208984375,484.0,-463.0,316.0,-29.905351638793945,31.078819274902344,0.0,37.437530517578125,-34.05802536010742,22.657594680786133,-26.287548065185547,27.587995529174805,0.0
1119,-2.91015625,-2.802490234375,-3.926513671875,512.0,-484.0,322.0,-29.83052635192871,31.10089683532715,0.0,37.47661590576172,-34.094970703125,22.682174682617188,-26.275054931640625,27.5773983001709,0.0
1124,-2.909423828125,-2.802734375,-3.926025390625,479.0,-508.0,309.0,-29.83687400817871,31.095863342285156,0.0,37.513179779052734,-34.133750915527344,22.70576286315918,-26.265161514282227,27.564987182617188,0.0
1129,-2.90673828125,-2.8037109375,-3.928955078125,500.0,-499.0,304.0,-29.841659545898438,31.056974411010742,0.0,37.55134582519531,-34.17184066772461,22.72896957397461,-26.253747940063477,27.553022384643555,0.0
1134,-2.9111328125,-2.80810546875,-3.919677734375,503.0,-491.0,304.0,-29.904916763305664,31.1214599609375,0.0,37.589744567871094,-34.209320068359375,22.75217628479004,-26.24262046813965,27.542192459106445,0.0
1139,-2.906494140625,-2.805419921875,-3.917236328125,478.0,-518.0,291.0,-29.90519905090332,31.099700927734375,0.0,37.6262321472168,-34.248863220214844,22.774389266967773,-26.233430862426758,27.529199600219727,0.0
1144,-2.908203125,-2.802978515625,-3.91748046875,492.0,-484.0,329.0,-29.877483367919922,31.12103271484375,0.0,37.663787841796875,-34.28580856323242,22.799503326416016,-26.223007202148438,27.518997192382812,0.0
1149,-2.90380859375,-2.799560546875,-3.923095703125,507.0,-511.0,325.0,-29.837697982788086,31.069137573242188,0.0,37.702491760253906,-34.3248176574707,22.824312210083008,-26.21119499206543,27.506406784057617,0.0
1154,-2.91015625,-2.80029296875,-3.92333984375,486.0,-480.0,324.0,-29.824037551879883,31.121185302734375,0.0,37.73958969116211,-34.36145782470703,22.849044799804688,-26.2009220123291,27.49660301208496,0.0
1159,-2.905029296875,-2.80078125,-3.9228515625,508.0,-482.0,295.0,-29.845792770385742,31.077098846435547,0.0,37.77836990356445,-34.398250579833984,22.871562957763672,-26.18918228149414,27.486360549926758,0.0
1164,-2.908203125,-2.796142578125,-3.927001953125,495.0,-499.0,314.0,-29.77838706970215,31.101158142089844,0.0,37.81615447998047,-34.43634033203125,22.895532608032227,-26.1779842376709,27.475046157836914,0.0
1169,-2.908447265625,-2.803955078125,-3.92333984375,494.0,-479.0,313.0,-29.86151123046875,31.095109939575195,0.0,37.85386276245117,-34.472904205322266,22.91942596435547,-26.167516708374023,27.46525001525879,0.0
1174,-2.90771484375,-2.79833984375,-3.92431640625,513.0,-479.0,318.0,-29.810178756713867,31.10169792175293,0.0,37.89302444458008,-34.50946807861328,22.943700790405273,-26.155277252197266,27.45553970336914,0.0
1179,-2.90673828125,-2.798583984375,-3.925537109375,481.0,-512.0,324.0,-29.810312271118164,31.087217330932617,0.0,37.92974090576172,-34.548553466796875,22.968433380126953,-26.145517349243164,27.443262100219727,0.0
1184,-2.906494140625,-2.80126953125,-3.919677734375,498.0,-479.0,317.0,-29.85860824584961,31.101957321166992,0.0,37.96775436401367,-34.58511734008789,22.992631912231445,-26.134859085083008,27.43364715576172,0.0
1189,-2.906982421875,-2.7978515625,-3.919677734375,472.0,-484.0,316.0,-29.826940536499023,31.116670608520508,0.0,38.0037841796875,-34.62206268310547,23.016754150390625,-26.125986099243164,27.423797607421875,0.0
1194,-2.9052734375,-2.79931640625,-3.92333984375,468.0,-482.0,321.0,-29.83013343811035,31.08161163330078,0.0,38.03950881958008,-34.65885543823242,23.041257858276367,-26.117469787597656,27.413881301879883,0.0
1199,-2.90966796875,-2.79443359375,-3.92724609375,481.0,-499.0,298.0,-29.75789451599121,31.118085861206055,0.0,38.07622528076172,-34.69694519042969,23.064006805419922,-26.107471466064453,27.402982711791992,0.0
1204,-2.9072265625,-2.802490234375,-3.919189453125,490.0,-503.0,327.0,-29.869163513183594,31.106700897216797,0.0,38.11362838745117,-34.73534393310547,23.08896827697754,-26.097639083862305,27.391746520996094,0.0
1209,-2.90771484375,-2.80029296875,-3.9287109375,490.0,-503.0,316.0,-29.809558868408203,31.076940536499023,0.0,38.151031494140625,-34.77374267578125,23.11309051513672,-26.087413787841797,27.38034439086914,0.0
1214,-2.90869140625,-2.802734375,-3.93017578125,488.0,-493.0,332.0,-29.822206497192383,31.071746826171875,0.0,38.18828201293945,-34.81137466430664,23.1384334564209,-26.07747459411621,27.369712829589844,0.0
1219,-2.9072265625,-2.80517578125,-3.92236328125,489.0,-500.0,318.0,-29.879940032958984,31.084917068481445,0.0,38.225608825683594,-34.84954071044922,23.162708282470703,-26.06791877746582,27.358692169189453,0.0
1224,-2.90771484375,-2.801025390625,-3.91796875,500.0,-462.0,328.0,-29.859724044799805,31.12066650390625,0.0,38.26377487182617,-34.88480758666992,23.187746047973633,-26.05742073059082,27.350858688354492,0.0
1229,-2.908447265625,-2.80029296875,-3.93115234375,483.0,-479.0,334.0,-29.797435760498047,31.07288360595703,0.0,38.30064392089844,-34.92137145996094,23.213241577148438,-26.047805786132812,27.34141731262207,0.0
1234,-2.912841796875,-2.804443359375,-3.926025390625,498.0,-472.0,309.0,-29.841646194458008,31.12040138244629,0.0,38.33865737915039,-34.957401275634766,23.23682975769043,-26.037412643432617,27.332889556884766,0.0
1239,-2.914306640625,-2.80078125,-3.927001953125,503.0,-491.0,315.0,-29.800968170166016,31.140151977539062,0.0,38.37705612182617,-34.99488067626953,23.260875701904297,-26.02639389038086,27.32309341430664,0.0
1245,-2.91064453125,-2.802978515625,-3.92236328125,496.0,-486.0,306.0,-29.850236892700195,31.121410369873047,0.0,38.4149169921875,-35.031978607177734,23.28423500061035,-26.01630973815918,27.313583374023438,0.0
1250,-2.9091796875,-2.804931640625,-3.920166015625,478.0,-485.0,326.0,-29.880834579467773,31.11207389831543,0.0,38.458702087402344,-35.0764045715332,23.314098358154297,-26.000682830810547,27.296844482421875,0.0
1255,-2.906005859375,-2.80322265625,-3.925048828125,493.0,-489.0,296.0,-29.85545539855957,31.06876564025879,0.0,38.496334075927734,-35.113731384277344,23.336694717407227,-25.991064071655273,27.28693199157715,0.0
1260,-2.906494140625,-2.80126953125,-3.92724609375,500.0,-472.0,311.0,-29.82780647277832,31.06958770751953,0.0,38.53450012207031,-35.14976119995117,23.360435485839844,-25.980754852294922,27.278356552124023,0.0
1265,-2.910888671875,-2.803466796875,-3.92431640625,505.0,-513.0,313.0,-29.845867156982422,31.113689422607422,0.0,38.57305145263672,-35.18892288208008,23.384328842163086,-25.97024154663086,27.26702308654785,0.0
1270,-2.9130859375,-2.802001953125,-3.92822265625,476.0,-479.0,295.0,-29.810457229614258,31.120582580566406,0.0,38.6093864440918,-35.225486755371094,23.40684700012207,-25.961719512939453,27.25836753845215,0.0
1275,-2.906494140625,-2.8046875,-3.916748046875,500.0,-469.0,310.0,-29.900724411010742,31.104032516479492,0.0,38.647552490234375,-35.261287689208984,23.430511474609375,-25.952056884765625,27.25038719177246,0.0
1280,-2.90673828125,-2.803955078125,-3.927734375,489.0,-488.0,330.0,-29.848779678344727,31.061443328857422,0.0,38.684879302978516,-35.29853820800781,23.45570182800293,-25.94289779663086,27.240690231323242,0.0
1285,-2.910400390625,-2.7978515625,-3.929443359375,524.0,-494.0,299.0,-29.776960372924805,31.104637145996094,0.0,38.72488021850586,-35.336246490478516,23.478527069091797,-25.93060874938965,27.23088836669922,0.0
1290,-2.90869140625,-2.800537109375,-3.92822265625,490.0,-486.0,313.0,-29.810758590698242,31.086790084838867,0.0,38.76228332519531,-35.37334442138672,23.50242042541504,-25.921199798583984,27.221609115600586,0.0
1295,-2.9072265625,-2.802001953125,-3.92578125,478.0,-489.0,329.0,-29.838022232055664,31.079999923706055,0.0,38.798770904541016,-35.41067123413086,23.52753448486328,-25.912933349609375,27.212093353271484,0.0
1300,-2.907958984375,-2.79833984375,-3.922119140625,498.0,-470.0,343.0,-29.818378448486328,31.11323356628418,0.0,38.83678436279297,-35.44654846191406,23.55371856689453,-25.903043746948242,27.204296112060547,0.0
1305,-2.911376953125,-2.800048828125,-3.91943359375,487.0,-481.0,327.0,-29.834075927734375,31.149295806884766,0.0,38.873958587646484,-35.4832649230957,23.57868003845215,-25.89414405822754,27.195951461791992,0.0
1310,-2.911865234375,-2.801025390625,-3.928466796875,508.0,-479.0,302.0,-29.80452537536621,31.111892700195312,0.0,38.91273880004883,-35.51982879638672,23.601734161376953,-25.883480072021484,27.187524795532227,0.0
1315,-2.90625,-2.8046875,-3.919921875,488.0,-476.0,307.0,-29.888526916503906,31.08833122253418,0.0,38.949989318847656,-35.5561637878418,23.62516975402832,-25.87497901916504,27.1791934967041,0.0
1320,-2.90771484375,-2.79931640625,-3.9189453125,497.0,-491.0,333.0,-29.840652465820312,31.121713638305664,0.0,38.9879264831543,-35.59364318847656,23.650588989257812,-25.865489959716797,27.169994354248047,0.0
1325,-2.908203125,-2.80029296875,-3.921630859375,477.0,-488.0,317.0,-29.836875915527344,31.111482620239258,0.0,39.02433776855469,-35.63089370727539,23.674787521362305,-25.857534408569336,27.16098976135254,0.0
1330,-2.90283203125,-2.802978515625,-3.919189453125,488.0,-506.0,297.0,-29.886749267578125,31.06688117980957,0.0,39.061588287353516,-35.66952133178711,23.697460174560547,-25.84912872314453,27.150344848632812,0.0
1335,-2.908203125,-2.7998046875,-3.920654296875,491.0,-471.0,314.0,-29.836538314819336,31.117156982421875,0.0,39.09906768798828,-35.705474853515625,23.7214298248291,-25.840173721313477,27.14276123046875,0.0
1340,-2.9072265625,-2.803466796875,-3.928466796875,486.0,-490.0,329.0,-29.840023040771484,31.064056396484375,0.0,39.136165618896484,-35.74287796020508,23.746543884277344,-25.831661224365234,27.133390426635742,0.0
1345,-2.906982421875,-2.802978515625,-3.925048828125,501.0,-497.0,329.0,-29.850357055664062,31.07802391052246,0.0,39.17441177368164,-35.78081512451172,23.771657943725586,-25.82212257385254,27.12363052368164,0.0
1350,-2.908447265625,-2.79833984375,-3.925537109375,488.0,-507.0,308.0,-29.803010940551758,31.102855682373047,0.0,39.21166229248047,-35.81951904296875,23.795169830322266,-25.813276290893555,27.11333465576172,0.0
1355,-2.90625,-2.799560546875,-3.932861328125,492.0,-490.0,328.0,-29.790632247924805,31.048669815063477,0.0,39.24921798706055,-35.8569221496582,23.820207595825195,-25.804079055786133,27.103992462158203,0.0
1360,-2.904541015625,-2.799560546875,-3.92529296875,490.0,-487.0,300.0,-29.826547622680664,31.066125869750977,0.0,39.28662109375,-35.89409637451172,23.843109130859375,-25.79532814025879,27.095043182373047,0.0
1365,-2.908935546875,-2.8056640625,-3.931884765625,496.0,-468.0,325.0,-29.840360641479492,31.05765151977539,0.0,39.32448196411133,-35.9298210144043,23.867918014526367,-25.7862606048584,27.08751678466797,0.0
1370,-2.904052734375,-2.80419921875,-3.9228515625,481.0,-479.0,298.0,-29.8789119720459,31.058147430419922,0.0,39.36119842529297,-35.96638488769531,23.890666961669922,-25.778640747070312,27.07918930053711,0.0
1375,-2.91064453125,-2.802490234375,-3.9306640625,490.0,-479.0,317.0,-29.812196731567383,31.0874080657959,0.0,39.39860153198242,-36.00294876098633,23.914865493774414,-25.769901275634766,27.071104049682617,0.0
1381,-2.912109375,-2.802001953125,-3.91943359375,480.0,-485.0,309.0,-29.84910774230957,31.149696350097656,0.0,39.43524169921875,-36.03997039794922,23.938453674316406,-25.762218475341797,27.063037872314453,0.0
1386,-2.907470703125,-2.802490234375,-3.921630859375,505.0,-494.0,315.0,-29.85848617553711,31.098384857177734,0.0,39.481502532958984,-36.08522415161133,23.967308044433594,-25.74516487121582,27.046554565429688,0.0
1391,-2.906005859375,-2.803466796875,-3.920166015625,498.0,-475.0,299.0,-29.87749481201172,31.088891983032227,0.0,39.51951599121094,-36.121482849121094,23.99013328552246,-25.736526489257812,27.039026260375977,0.0
1396,-2.9052734375,-2.804443359375,-3.92138671875,511.0,-488.0,340.0,-29.883352279663086,31.074302673339844,0.0,39.55852508544922,-36.15873336791992,24.01608657836914,-25.72698402404785,27.030439376831055,0.0
1401,-2.912109375,-2.806640625,-3.929443359375,500.0,-482.0,319.0,-29.849336624145508,31.09271812438965,0.0,39.5966911315918,-36.195526123046875,24.040437698364258,-25.71807861328125,27.022476196289062,0.0
1406,-2.910400390625,-2.801025390625,-3.922607421875,500.0,-495.0,320.0,-29.83274269104004,31.124210357666016,0.0,39.634857177734375,-36.23331069946289,24.064865112304688,-25.709096908569336,27.013782501220703,0.0
1411,-2.906005859375,-2.80224609375,-3.928955078125,504.0,-485.0,304.0,-29.830942153930664,31.055055618286133,0.0,39.67333221435547,-36.27033233642578,24.088071823120117,-25.69984245300293,27.005401611328125,0.0
1416,-2.91162109375,-2.80126953125,-3.92529296875,482.0,-477.0,313.0,-29.82030487060547,31.122600555419922,0.0,39.71012496948242,-36.30674362182617,24.11196517944336,-25.692222595214844,26.998140335083008,0.0
1421,-2.908447265625,-2.800537109375,-3.928955078125,515.0,-507.0,320.0,-29.808517456054688,31.081531524658203,0.0,39.74943923950195,-36.3454475402832,24.13639259338379,-25.682052612304688,26.988346099853516,0.0
1426,-2.908447265625,-2.802490234375,-3.924072265625,489.0,-487.0,284.0,-29.845605850219727,31.096452713012695,0.0,39.786766052246094,-36.38262176513672,24.158071517944336,-25.674161911010742,26.9802188873291,0.0
1431,-2.906982421875,-2.79638671875,-3.928955078125,514.0,-495.0,317.0,-29.77627944946289,31.0814151763916,0.0,39.82600402832031,-36.420406341552734,24.182270050048828,-25.66392707824707,26.971416473388672,0.0
1436,-2.904541015625,-2.798095703125,-3.9248046875,495.0,-479.0,336.0,-29.815595626831055,31.072683334350586,0.0,39.86378860473633,-36.45697021484375,24.207918167114258,-25.655458450317383,26.96380615234375,0.0
1441,-2.90966796875,-2.800537109375,-3.9189453125,499.0,-486.0,309.0,-29.845535278320312,31.13500213623047,0.0,39.901878356933594,-36.49406814575195,24.23150634765625,-25.646934509277344,26.956134796142578,0.0
1446,-2.906005859375,-2.802734375,-3.927978515625,491.0,-481.0,328.0,-29.839221954345703,31.0577392578125,0.0,39.93935775756836,-36.530784606933594,24.25654411315918,-25.639013290405273,26.94833755493164,0.0
1451,-2.91162109375,-2.802001953125,-3.920654296875,483.0,-481.0,318.0,-29.845619201660156,31.140216827392578,0.0,39.976226806640625,-36.567501068115234,24.280818939208984,-25.631776809692383,26.941150665283203,0.0
1456,-2.90673828125,-2.799560546875,-3.926513671875,496.0,-482.0,320.0,-29.814964294433594,31.080059051513672,0.0,40.01408767700195,-36.60429382324219,24.305246353149414,-25.62337303161621,26.93349838256836,0.0
1461,-2.906982421875,-2.802734375,-3.930419921875,490.0,-490.0,329.0,-29.82635498046875,31.05582046508789,0.0,40.051490783691406,-36.64169692993164,24.330360412597656,-25.615543365478516,26.925106048583984,0.0
1466,-2.906982421875,-2.802978515625,-3.92724609375,500.0,-474.0,327.0,-29.841415405273438,31.068634033203125,0.0,40.089656829833984,-36.677879333496094,24.355321884155273,-25.60709571838379,26.91805648803711,0.0
1471,-2.907958984375,-2.80322265625,-3.9296875,505.0,-497.0,301.0,-29.83070182800293,31.06596565246582,0.0,40.12820816040039,-36.715816497802734,24.378299713134766,-25.598236083984375,26.90927505493164,0.0
1476,-2.90625,-2.80224609375,-3.9296875,488.0,-488.0,323.0,-29.827228546142578,31.054054260253906,0.0,40.16545867919922,-36.75306701660156,24.402956008911133,-25.590682983398438,26.901134490966797,0.0
1481,-2.908203125,-2.806884765625,-3.931396484375,503.0,-478.0,334.0,-29.85530662536621,31.04964256286621,0.0,40.203857421875,-36.789554595947266,24.428451538085938,-25.58222198486328,26.893760681152344,0.0
1486,-2.90576171875,-2.800537109375,-3.92431640625,476.0,-476.0,307.0,-29.835466384887695,31.077964782714844,0.0,40.24019241333008,-36.825889587402344,24.451887130737305,-25.575712203979492,26.886770248413086,0.0
1491,-2.90869140625,-2.801025390625,-3.92431640625,475.0,-474.0,305.0,-29.830947875976562,31.102008819580078,0.0,40.276451110839844,-36.8620719909668,24.475170135498047,-25.569272994995117,26.880128860473633,0.0
1496,-2.906982421875,-2.7998046875,-3.91845703125,494.0,-485.0,328.0,-29.849164962768555,31.115924835205078,0.0,40.31415939331055,-36.89909362792969,24.500207901000977,-25.561546325683594,26.872777938842773,0.0
1501,-2.906494140625,-2.80224609375,-3.927001953125,504.0,-483.0,313.0,-29.837417602539062,31.06765365600586,0.0,40.35263442993164,-36.93596267700195,24.52410125732422,-25.553016662597656,26.865276336669922,0.0
1506,-2.9033203125,-2.80224609375,-3.9248046875,481.0,-485.0,306.0,-29.85592269897461,31.04937744140625,0.0,40.38935089111328,-36.972984313964844,24.547460556030273,-25.54640007019043,26.857532501220703,0.0
1511,-2.908203125,-2.801025390625,-3.92626953125,482.0,-486.0,308.0,-29.82447624206543,31.089399337768555,0.0,40.426143646240234,-37.01008224487305,24.570972442626953,-25.539518356323242,26.850027084350586,0.0
1517,-2.90576171875,-2.801025390625,-3.922607421875,493.0,-479.0,316.0,-29.84673500061035,31.083784103393555,0.0,40.463775634765625,-37.04664611816406,24.595094680786133,-25.5319881439209,26.843048095703125,0.0
1522,-2.910400390625,-2.800537109375,-3.922607421875,492.0,-470.0,314.0,-29.828433990478516,31.125701904296875,0.0,40.50884246826172,-37.089698791503906,24.623857498168945,-25.517066955566406,26.830034255981445,0.0
1527,-2.90625,-2.80224609375,-3.9296875,486.0,-488.0,315.0,-29.827228546142578,31.054054260253906,0.0,40.54594039916992,-37.126949310302734,24.647903442382812,-25.5101375579834,26.822355270385742,0.0
1532,-2.90673828125,-2.7998046875,-3.927001953125,485.0,-482.0,314.0,-29.815134048461914,31.077226638793945,0.0,40.58296203613281,-37.16374206542969,24.671873092651367,-25.503231048583984,26.815326690673828,0.0
1537,-2.908203125,-2.8037109375,-3.922119140625,498.0,-483.0,287.0,-29.865060806274414,31.098947525024414,0.0,40.620975494384766,-37.20061111450195,24.69378089904785,-25.495716094970703,26.80840492248535,0.0
1542,-2.906494140625,-2.797607421875,-3.930908203125,493.0,-481.0,296.0,-29.78059196472168,31.065086364746094,0.0,40.658607482910156,-37.237327575683594,24.71637725830078,-25.48802947998047,26.80143165588379,0.0
1547,-2.906494140625,-2.798583984375,-3.92626953125,501.0,-471.0,313.0,-29.808069229125977,31.081953048706055,0.0,40.69685363769531,-37.27328109741211,24.740270614624023,-25.479963302612305,26.795366287231445,0.0
1552,-2.908203125,-2.803955078125,-3.924072265625,511.0,-489.0,310.0,-29.85926628112793,31.08985137939453,0.0,40.735862731933594,-37.31060791015625,24.763935089111328,-25.471532821655273,26.788015365600586,0.0
1557,-2.906005859375,-2.7998046875,-3.924560546875,508.0,-487.0,298.0,-29.8272705078125,31.08128547668457,0.0,40.77464294433594,-37.347782135009766,24.786684036254883,-25.463150024414062,26.780792236328125,0.0
1562,-2.907470703125,-2.796142578125,-3.92041015625,494.0,-490.0,316.0,-29.807384490966797,31.123014450073242,0.0,40.81235122680664,-37.38518524169922,24.810806274414062,-25.455732345581055,26.773664474487305,0.0
1567,-2.9091796875,-2.804931640625,-3.92578125,501.0,-500.0,303.0,-29.85798454284668,31.08807373046875,0.0,40.8505973815918,-37.4233512878418,24.83393669128418,-25.448169708251953,26.76557159423828,0.0
1572,-2.9072265625,-2.801513671875,-3.926025390625,502.0,-474.0,326.0,-29.832719802856445,31.080446243286133,0.0,40.888919830322266,-37.45953369140625,24.858821868896484,-25.440393447875977,26.759437561035156,0.0
1577,-2.903076171875,-2.802490234375,-3.923828125,495.0,-494.0,331.0,-29.86279296875,31.050676345825195,0.0,40.92670440673828,-37.49724197387695,24.88408851623535,-25.433393478393555,26.75160789489746,0.0
1582,-2.907958984375,-2.80419921875,-3.914306640625,474.0,-465.0,308.0,-29.901931762695312,31.128747940063477,0.0,40.962886810302734,-37.532737731933594,24.90760040283203,-25.42828941345215,26.74655532836914,0.0
1587,-2.90625,-2.797119140625,-3.927978515625,489.0,-479.0,324.0,-29.78891944885254,31.07697868347168,0.0,41.000213623046875,-37.56930160522461,24.93233299255371,-25.421287536621094,26.740102767944336,0.0
1592,-2.9091796875,-2.8046875,-3.9287109375,492.0,-503.0,311.0,-29.843915939331055,31.07630157470703,0.0,41.03776931762695,-37.60770034790039,24.956073760986328,-25.414470672607422,26.731855392456055,0.0
1597,-2.906982421875,-2.80078125,-3.9345703125,469.0,-486.0,308.0,-29.792259216308594,31.044038772583008,0.0,41.073570251464844,-37.644798278808594,24.979585647583008,-25.409074783325195,26.724716186523438,0.0
1602,-2.907958984375,-2.804443359375,-3.9296875,478.0,-484.0,302.0,-29.841466903686523,31.062246322631836,0.0,41.11005783081055,-37.68174362182617,25.002639770507812,-25.40335464477539,26.7178897857666,0.0
1607,-2.906982421875,-2.802490234375,-3.919677734375,496.0,-468.0,314.0,-29.86791229248047,31.10248374938965,0.0,41.147918701171875,-37.71746826171875,25.026609420776367,-25.3964786529541,26.712587356567383,0.0
1612,-2.9072265625,-2.803955078125,-3.92919921875,509.0,-487.0,292.0,-29.841350555419922,31.05944061279297,0.0,41.18677520751953,-37.754642486572266,25.048898696899414,-25.38846778869629,26.705568313598633,0.0
1617,-2.908203125,-2.804443359375,-3.925537109375,487.0,-503.0,301.0,-29.857614517211914,31.082101821899414,0.0,41.22394943237305,-37.79304122924805,25.071876525878906,-25.38227653503418,26.697526931762695,0.0
1622,-2.9072265625,-2.801513671875,-3.927490234375,494.0,-480.0,286.0,-29.826763153076172,31.07418441772461,0.0,41.26165771484375,-37.829681396484375,25.093708038330078,-25.3753719329834,26.69121551513672,0.0
1627,-2.9091796875,-2.80126953125,-3.92626953125,491.0,-486.0,335.0,-29.82369041442871,31.0971622467041,0.0,41.299137115478516,-37.86677932739258,25.119279861450195,-25.36870574951172,26.68463706970215,0.0
1632,-2.912841796875,-2.804443359375,-3.923583984375,501.0,-488.0,288.0,-29.851566314697266,31.130842208862305,0.0,41.33738327026367,-37.904029846191406,25.141263961791992,-25.36150550842285,26.678171157836914,0.0
1637,-2.91064453125,-2.802490234375,-3.921630859375,474.0,-493.0,313.0,-29.848907470703125,31.12603759765625,0.0,41.373565673828125,-37.9416618347168,25.165157318115234,-25.35637092590332,26.671323776245117,0.0
1642,-2.904541015625,-2.800048828125,-3.92578125,516.0,-478.0,322.0,-29.82887077331543,31.062549591064453,0.0,41.41295623779297,-37.9781494140625,25.18973731994629,-25.347936630249023,26.665210723876953,0.0
1647,-2.90478515625,-2.80224609375,-3.925537109375,515.0,-474.0,323.0,-29.848526000976562,31.059019088745117,0.0,41.4522705078125,-38.01433181762695,25.214393615722656,-25.339757919311523,26.659408569335938,0.0
1653,-2.907470703125,-2.802490234375,-3.92431640625,486.0,-474.0,323.0,-29.84755516052246,31.08690071105957,0.0,41.4893684387207,-38.050514221191406,25.239049911499023,-25.333812713623047,26.653823852539062,0.0
1658,-2.907470703125,-2.80126953125,-3.925048828125,497.0,-485.0,319.0,-29.833803176879883,31.087493896484375,0.0,41.53489685058594,-38.094940185546875,25.26827049255371,-25.319520950317383,26.640167236328125,0.0
1663,-2.904052734375,-2.80126953125,-3.925048828125,482.0,-479.0,308.0,-29.844100952148438,31.05769920349121,0.0,41.57168960571289,-38.13150405883789,25.29178237915039,-25.314054489135742,26.634193420410156,0.0
1668,-2.906494140625,-2.8017578125,-3.929443359375,504.0,-496.0,326.0,-29.823179244995117,31.0587100982666,0.0,41.610164642333984,-38.16936492919922,25.316667556762695,-25.30680274963379,26.62696647644043,0.0
1673,-2.908447265625,-2.7978515625,-3.926513671875,481.0,-463.0,311.0,-29.79473114013672,31.10016441345215,0.0,41.646881103515625,-38.204708099365234,25.340408325195312,-25.30113410949707,26.622562408447266,0.0
1678,-2.9091796875,-2.801025390625,-3.93408203125,493.0,-477.0,307.0,-29.7898006439209,31.064512252807617,0.0,41.684513092041016,-38.241119384765625,25.36384391784668,-25.29454803466797,26.616870880126953,0.0
1683,-2.904052734375,-2.802490234375,-3.9189453125,487.0,-490.0,308.0,-29.879745483398438,31.080066680908203,0.0,41.72168731689453,-38.27852249145508,25.38735580444336,-25.289064407348633,26.61032485961914,0.0
1688,-2.904052734375,-2.8046875,-3.928466796875,500.0,-478.0,324.0,-29.86034393310547,31.032682418823242,0.0,41.75985336303711,-38.31501007080078,25.41208839416504,-25.282487869262695,26.604394912719727,0.0
1693,-2.90625,-2.80224609375,-3.923828125,512.0,-496.0,285.0,-29.8510684967041,31.079092025756836,0.0,41.7989387512207,-38.35287094116211,25.4338436126709,-25.27497100830078,26.59744644165039,0.0
1698,-2.908447265625,-2.801513671875,-3.92333984375,492.0,-490.0,306.0,-29.8399658203125,31.102567672729492,0.0,41.83649444580078,-38.39027404785156,25.457202911376953,-25.268932342529297,26.591148376464844,0.0
1703,-2.90380859375,-2.803466796875,-3.924072265625,495.0,-499.0,320.0,-29.868209838867188,31.05303955078125,0.0,41.8742790222168,-38.42836380004883,25.481630325317383,-25.262887954711914,26.583860397338867,0.0
1708,-2.909912109375,-2.800048828125,-3.934814453125,512.0,-496.0,308.0,-29.776016235351562,31.070728302001953,0.0,41.91336441040039,-38.466224670410156,25.505142211914062,-25.254953384399414,26.57695770263672,0.0
1713,-2.908447265625,-2.80078125,-3.925537109375,491.0,-512.0,298.0,-29.824565887451172,31.09540557861328,0.0,41.950843811035156,-38.50531005859375,25.527891159057617,-25.248985290527344,26.569047927856445,0.0
1718,-2.911376953125,-2.797607421875,-3.927490234375,492.0,-487.0,323.0,-29.77979278564453,31.12224578857422,0.0,41.988399505615234,-38.542484283447266,25.552547454833984,-25.24266242980957,26.563257217407227,0.0
1723,-2.90576171875,-2.800048828125,-3.923095703125,506.0,-478.0,295.0,-29.836122512817383,31.08467674255371,0.0,42.02702713012695,-38.57897186279297,25.57506561279297,-25.235694885253906,26.557920455932617,0.0
1728,-2.910400390625,-2.802734375,-3.92138671875,513.0,-510.0,314.0,-29.85279083251953,31.124208450317383,0.0,42.06618881225586,-38.61790466308594,25.599035263061523,-25.228347778320312,26.550453186035156,0.0
1733,-2.908447265625,-2.8037109375,-3.914306640625,493.0,-496.0,303.0,-29.896141052246094,31.134502410888672,0.0,42.10382080078125,-38.655765533447266,25.62216567993164,-25.222850799560547,26.544157028198242,0.0
1738,-2.91015625,-2.799072265625,-3.924072265625,518.0,-490.0,306.0,-29.810283660888672,31.12177848815918,0.0,42.14336395263672,-38.69316864013672,25.645524978637695,-25.21489906311035,26.538259506225586,0.0
1743,-2.90966796875,-2.804443359375,-3.92333984375,489.0,-485.0,315.0,-29.86213493347168,31.104249954223633,0.0,42.18069076538086,-38.73019027709961,25.669570922851562,-25.20954132080078,26.532649993896484,0.0
1748,-2.907470703125,-2.802490234375,-3.92626953125,489.0,-473.0,338.0,-29.839609146118164,31.078550338745117,0.0,42.218017578125,-38.76629638671875,25.695371627807617,-25.204055786132812,26.527803421020508,0.0
1753,-2.908203125,-2.802734375,-3.922119140625,501.0,-468.0,328.0,-29.856443405151367,31.101932525634766,0.0,42.256263732910156,-38.80202102661133,25.720409393310547,-25.19780158996582,26.523517608642578,0.0
1758,-2.906982421875,-2.801025390625,-3.92822265625,505.0,-479.0,313.0,-29.820209503173828,31.07041358947754,0.0,42.29481506347656,-38.838584899902344,25.74430274963379,-25.191028594970703,26.518199920654297,0.0
1763,-2.906982421875,-2.801513671875,-3.92431640625,521.0,-503.0,309.0,-29.840408325195312,31.08562660217285,0.0,42.33458709716797,-38.876983642578125,25.76789093017578,-25.183216094970703,26.511192321777344,0.0
1768,-2.910888671875,-2.801025390625,-3.919921875,496.0,-473.0,295.0,-29.842187881469727,31.13996124267578,0.0,42.3724479675293,-38.913089752197266,25.790409088134766,-25.177352905273438,26.506868362426758,0.0
1773,-2.909423828125,-2.7958984375,-3.931640625,515.0,-487.0,306.0,-29.753732681274414,31.09267807006836,0.0,42.41176223754883,-38.95026397705078,25.81376838684082,-25.169477462768555,26.501178741455078,0.0
1778,-2.912353515625,-2.805419921875,-3.9287109375,476.0,-487.0,320.0,-29.840816497802734,31.101694107055664,0.0,42.448097229003906,-38.9874382019043,25.83819580078125,-25.165193557739258,26.49557876586914,0.0
1783,-2.90966796875,-2.8037109375,-3.9296875,480.0,-461.0,331.0,-29.829866409301758,31.07935905456543,0.0,42.484737396240234,-39.02262878417969,25.863462448120117,-25.16054916381836,26.4918270111084,0.0
1789,-2.90478515625,-2.805419921875,-3.92724609375,485.0,-499.0,326.0,-29.869569778442383,31.042041778564453,0.0,42.521759033203125,-39.06071853637695,25.888347625732422,-25.155818939208984,26.484954833984375,0.0
1794,-2.906982421875,-2.798828125,-3.924560546875,504.0,-472.0,312.0,-29.815704345703125,31.0927791595459,0.0,42.567928314208984,-39.10395431518555,25.916927337646484,-25.141752243041992,26.473445892333984,0.0
1799,-2.904052734375,-2.79736328125,-3.92626953125,519.0,-515.0,326.0,-29.80463409423828,31.064390182495117,0.0,42.607547760009766,-39.14326858520508,25.94181251525879,-25.134201049804688,26.46570587158203,0.0
1804,-2.90625,-2.79833984375,-3.91796875,469.0,-496.0,310.0,-29.840423583984375,31.11610984802246,0.0,42.643348693847656,-39.181129455566406,25.965476989746094,-25.13072395324707,26.459800720214844,0.0
1809,-2.90625,-2.79931640625,-3.93212890625,480.0,-457.0,312.0,-29.791454315185547,31.052541732788086,0.0,42.679988861083984,-39.21601486206055,25.989294052124023,-25.12609100341797,26.456449508666992,0.0
1814,-2.9033203125,-2.8037109375,-3.923828125,503.0,-474.0,312.0,-29.872831344604492,31.04907989501953,0.0,42.718387603759766,-39.252197265625,26.013111114501953,-25.120290756225586,26.451797485351562,0.0
1819,-2.907470703125,-2.805419921875,-3.924560546875,494.0,-472.0,358.0,-29.87240982055664,31.07691192626953,0.0,42.75609588623047,-39.28822708129883,26.04043960571289,-25.115198135375977,26.447507858276367,0.0
1824,-2.904541015625,-2.801025390625,-3.9248046875,496.0,-499.0,324.0,-29.841468811035156,31.063745498657227,0.0,42.7939567565918,-39.326316833496094,26.06517219543457,-25.10976791381836,26.44110107421875,0.0
1829,-2.91162109375,-2.7998046875,-3.931884765625,484.0,-480.0,328.0,-29.78061866760254,31.09886932373047,0.0,42.830902099609375,-39.36295700073242,26.0902099609375,-25.1048583984375,26.436405181884766,0.0
1834,-2.9091796875,-2.79833984375,-3.92919921875,480.0,-498.0,314.0,-29.785930633544922,31.093563079833984,0.0,42.8675422668457,-39.400970458984375,26.114179611206055,-25.100311279296875,26.43033218383789,0.0
1839,-2.908935546875,-2.80029296875,-3.925048828125,499.0,-494.0,324.0,-29.820768356323242,31.10323715209961,0.0,42.90563201904297,-39.43867874145508,26.138912200927734,-25.09458351135254,26.424659729003906,0.0
1844,-2.908203125,-2.7998046875,-3.926025390625,500.0,-501.0,302.0,-29.814695358276367,31.09416961669922,0.0,42.94379806518555,-39.476924896240234,26.16196632385254,-25.08876609802246,26.41842269897461,0.0
1849,-2.904541015625,-2.80078125,-3.923095703125,494.0,-496.0,310.0,-29.846271514892578,31.07179832458496,0.0,42.98150634765625,-39.51478576660156,26.185630798339844,-25.083648681640625,26.412445068359375,0.0
1854,-2.91015625,-2.80419921875,-3.92626953125,505.0,-488.0,319.0,-29.846593856811523,31.096725463867188,0.0,43.020057678222656,-39.55203628540039,26.20998191833496,-25.07772445678711,26.40727424621582,0.0
1859,-2.9052734375,-2.802490234375,-3.9189453125,503.0,-497.0,299.0,-29.87605857849121,31.090713500976562,0.0,43.05845642089844,-39.58997344970703,26.232807159423828,-25.072181701660156,26.40140724182129,0.0
1864,-2.902099609375,-2.80322265625,-3.924560546875,483.0,-497.0,307.0,-29.869216918945312,31.03679656982422,0.0,43.0953254699707,-39.62791061401367,26.256242752075195,-25.06813621520996,26.395204544067383,0.0
1869,-2.9072265625,-2.806640625,-3.929931640625,471.0,-508.0,341.0,-29.862051010131836,31.048131942749023,0.0,43.13127899169922,-39.666690826416016,26.282272338867188,-25.064971923828125,26.388277053833008,0.0
1874,-2.911865234375,-2.801513671875,-3.927978515625,491.0,-468.0,320.0,-29.810815811157227,31.112491607666016,0.0,43.168758392333984,-39.702415466308594,26.306699752807617,-25.059955596923828,26.384857177734375,0.0
1879,-2.908935546875,-2.801025390625,-3.92138671875,487.0,-484.0,330.0,-29.842126846313477,31.11667251586914,0.0,43.2059326171875,-39.73936080932617,26.331890106201172,-25.055479049682617,26.380266189575195,0.0
1884,-2.909423828125,-2.80224609375,-3.925048828125,493.0,-489.0,294.0,-29.83653450012207,31.10152816772461,0.0,43.24356460571289,-39.77668762207031,26.354331970214844,-25.0505313873291,26.375215530395508,0.0
1889,-2.90576171875,-2.798828125,-3.917724609375,487.0,-495.0,320.0,-29.84720802307129,31.11140251159668,0.0,43.280738830566406,-39.81447219848633,26.378759384155273,-25.04613494873047,26.369802474975586,0.0
1894,-2.9052734375,-2.80322265625,-3.933837890625,500.0,-470.0,309.0,-29.8218994140625,31.024858474731445,0.0,43.318904876708984,-39.85034942626953,26.402347564697266,-25.040603637695312,26.365726470947266,0.0
1899,-2.902587890625,-2.801513671875,-3.921142578125,500.0,-497.0,285.0,-29.866586685180664,31.060876846313477,0.0,43.35707092285156,-39.88828659057617,26.424102783203125,-25.035402297973633,26.359867095947266,0.0
1904,-2.905517578125,-2.80224609375,-3.921142578125,504.0,-497.0,305.0,-29.864213943481445,31.084190368652344,0.0,43.395545959472656,-39.92622375488281,26.447385787963867,-25.029909133911133,26.354196548461914,0.0
1909,-2.90673828125,-2.802978515625,-3.925048828125,504.0,-481.0,335.0,-29.851091384887695,31.075897216796875,0.0,43.43402099609375,-39.96294021606445,26.472957611083984,-25.024354934692383,26.349712371826172,0.0
1914,-2.90380859375,-2.79931640625,-3.9189453125,493.0,-484.0,316.0,-29.852447509765625,31.087642669677734,0.0,43.47165298461914,-39.99988555908203,26.497079849243164,-25.01967430114746,26.345102310180664,0.0
1919,-2.906982421875,-2.802734375,-3.92431640625,502.0,-481.0,323.0,-29.85118293762207,31.081899642944336,0.0,43.50997543334961,-40.03660202026367,26.52173614501953,-25.014326095581055,26.3407039642334,0.0
1925,-2.906982421875,-2.80126953125,-3.927978515625,486.0,-496.0,331.0,-29.82335662841797,31.07071304321289,0.0,43.54707336425781,-40.074462890625,26.5470027923584,-25.010028839111328,26.335115432739258,0.0
1930,-2.911865234375,-2.8017578125,-3.912353515625,506.0,-473.0,305.0,-29.876495361328125,31.17865753173828,0.0,43.59342575073242,-40.11779022216797,26.574941635131836,-24.997018814086914,26.324953079223633,0.0
1935,-2.90625,-2.798583984375,-3.9287109375,492.0,-511.0,327.0,-29.798879623413086,31.069381713867188,0.0,43.6309814453125,-40.15679931640625,26.599903106689453,-24.992294311523438,26.31839942932129,0.0
1940,-2.90673828125,-2.801513671875,-3.919677734375,484.0,-455.0,341.0,-29.860027313232422,31.103342056274414,0.0,43.66792678833008,-40.191532135009766,26.625932693481445,-24.988615036010742,26.31635856628418,0.0
1945,-2.9072265625,-2.800048828125,-3.921630859375,490.0,-449.0,328.0,-29.83766746520996,31.103717803955078,0.0,43.70532989501953,-40.225807189941406,26.650970458984375,-24.984344482421875,26.31477928161621,0.0
1950,-2.90673828125,-2.802490234375,-3.923095703125,500.0,-507.0,333.0,-29.854732513427734,31.085735321044922,0.0,43.74349594116211,-40.26451110839844,26.676389694213867,-24.97945213317871,26.308683395385742,0.0
1955,-2.90673828125,-2.80322265625,-3.93115234375,484.0,-477.0,294.0,-29.82841682434082,31.04907989501953,0.0,43.78044128417969,-40.30092239379883,26.69883155822754,-24.975618362426758,26.304645538330078,0.0
1960,-2.910400390625,-2.800537109375,-3.92333984375,503.0,-473.0,321.0,-29.825456619262695,31.12256622314453,0.0,43.81884002685547,-40.33702850341797,26.72333526611328,-24.9703426361084,26.301427841186523,0.0
1965,-2.908203125,-2.80029296875,-3.924560546875,483.0,-481.0,310.0,-29.824960708618164,31.09894561767578,0.0,43.855709075927734,-40.37374496459961,26.746999740600586,-24.96660614013672,26.297454833984375,0.0
1970,-2.91015625,-2.80078125,-3.918701171875,491.0,-488.0,302.0,-29.847209930419922,31.139554977416992,0.0,43.8931884765625,-40.41099548339844,26.77005386352539,-24.962430953979492,26.293245315551758,0.0
1975,-2.90283203125,-2.79833984375,-3.923583984375,496.0,-502.0,329.0,-29.827869415283203,31.062255859375,0.0,43.93104934692383,-40.449317932128906,26.795167922973633,-24.957765579223633,26.287471771240234,0.0
1980,-2.905517578125,-2.801025390625,-3.92626953125,493.0,-498.0,308.0,-29.832563400268555,31.065996170043945,0.0,43.96868133544922,-40.48733139038086,26.818679809570312,-24.95338249206543,26.282058715820312,0.0
1985,-2.91455078125,-2.8037109375,-3.922607421875,487.0,-494.0,338.0,-29.843917846679688,31.152135848999023,0.0,44.005855560302734,-40.52503967285156,26.844480514526367,-24.949552536010742,26.277559280395508,0.0
1990,-2.909912109375,-2.802490234375,-3.925537109375,493.0,-481.0,309.0,-29.835233688354492,31.102947235107422,0.0,44.043487548828125,-40.5617561340332,26.86806869506836,-24.945226669311523,26.27373504638672,0.0
1995,-2.910888671875,-2.79931640625,-3.933349609375,486.0,-476.0,342.0,-29.77256965637207,31.087717056274414,0.0,44.08058547973633,-40.59809112548828,26.894176483154297,-24.941028594970703,26.270206451416016,0.0
2000,-2.90869140625,-2.805908203125,-3.924072265625,505.0,-496.0,303.0,-29.875024795532227,31.088138580322266,0.0,44.119136810302734,-40.63595199584961,26.917306900024414,-24.93610382080078,26.265178680419922,0.0
2005,-2.910888671875,-2.80029296875,-3.93017578125,482.0,-501.0,314.0,-29.794063568115234,31.09831428527832,0.0,44.15592956542969,-40.674198150634766,26.94127655029297,-24.932401657104492,26.259868621826172,0.0
2010,-2.90966796875,-2.803955078125,-3.921630859375,498.0,-479.0,282.0,-29.86478042602539,31.11305046081543,0.0,44.19394302368164,-40.71076202392578,26.96280288696289,-24.927982330322266,26.2563533782959,0.0
2015,-2.908935546875,-2.801513671875,-3.92333984375,512.0,-479.0,316.0,-29.83849334716797,31.106822967529297,0.0,44.233028411865234,-40.7473258972168,26.98692512512207,-24.922346115112305,26.252811431884766,0.0
2020,-2.908935546875,-2.7978515625,-3.92041015625,496.0,-499.0,324.0,-29.81806755065918,31.13055992126465,0.0,44.27088928222656,-40.78541564941406,27.01165771484375,-24.917814254760742,26.2479305267334,0.0
2025,-2.9072265625,-2.80224609375,-3.92431640625,497.0,-484.0,316.0,-29.84613800048828,31.08551788330078,0.0,44.3088264465332,-40.82236099243164,27.03577995300293,-24.913419723510742,26.243907928466797,0.0
2030,-2.90625,-2.801025390625,-3.921875,493.0,-487.0,310.0,-29.848243713378906,31.09117317199707,0.0,44.346458435058594,-40.859535217285156,27.059444427490234,-24.909364700317383,26.239717483520508,0.0
2035,-2.908203125,-2.80224609375,-3.924072265625,494.0,-472.0,298.0,-29.844186782836914,31.09507179260254,0.0,44.3841667175293,-40.895565032958984,27.08219337463379,-24.905227661132812,26.236711502075195,0.0
2040,-2.90771484375,-2.798095703125,-3.919677734375,497.0,-495.0,300.0,-29.826887130737305,31.1223087310791,0.0,44.42210388183594,-40.933349609375,27.10509490966797,-24.900766372680664,26.232158660888672,0.0
2045,-2.9091796875,-2.801513671875,-3.93017578125,492.0,-485.0,321.0,-29.80997085571289,31.0797176361084,0.0,44.459659576416016,-40.97037124633789,27.12959861755371,-24.89659309387207,26.228099822998047,0.0
2050,-2.908935546875,-2.802001953125,-3.925048828125,479.0,-502.0,341.0,-29.835851669311523,31.098020553588867,0.0,44.49622344970703,-41.00869369506836,27.155628204345703,-24.893600463867188,26.222896575927734,0.0
2055,-2.906982421875,-2.8017578125,-3.93359375,489.0,-513.0,335.0,-29.804840087890625,31.04524040222168,0.0,44.53355026245117,-41.047855377197266,27.18120002746582,-24.8896541595459,26.21653175354004,0.0
2061,-2.9052734375,-2.8046875,-3.92578125,494.0,-481.0,314.0,-29.867605209350586,31.054784774780273,0.0,44.571258544921875,-41.084571838378906,27.205169677734375,-24.885772705078125,26.21269416809082,0.0
2066,-2.911865234375,-2.80224609375,-3.923828125,482.0,-473.0,324.0,-29.834136962890625,31.12801170349121,0.0,44.61540985107422,-41.127899169921875,27.23484992980957,-24.875381469726562,26.202899932861328,0.0
2071,-2.908447265625,-2.798095703125,-3.922607421875,482.0,-485.0,278.0,-29.812763214111328,31.11614418029785,0.0,44.65220260620117,-41.164920806884766,27.256071090698242,-24.872217178344727,26.199344635009766,0.0
2076,-2.908447265625,-2.801025390625,-3.931396484375,495.0,-478.0,320.0,-29.802906036376953,31.069610595703125,0.0,44.68998718261719,-41.20140838623047,27.280498504638672,-24.86801528930664,26.196022033691406,0.0
2081,-2.907958984375,-2.80126953125,-3.919677734375,502.0,-499.0,322.0,-29.854185104370117,31.114728927612305,0.0,44.728309631347656,-41.239498138427734,27.305078506469727,-24.863649368286133,26.19142723083496,0.0
2086,-2.90869140625,-2.800048828125,-3.924072265625,509.0,-476.0,315.0,-29.823320388793945,31.106035232543945,0.0,44.76716613769531,-41.27583312988281,27.329124450683594,-24.858566284179688,26.18854331970215,0.0
2091,-2.907958984375,-2.80029296875,-3.922119140625,478.0,-493.0,310.0,-29.83562660217285,31.10726547241211,0.0,44.803653717041016,-41.3134651184082,27.3527889251709,-24.85594367980957,26.184389114379883,0.0
2096,-2.906494140625,-2.80126953125,-3.921142578125,479.0,-483.0,330.0,-29.852643966674805,31.09568977355957,0.0,44.84021759033203,-41.35033416748047,27.377979278564453,-24.853370666503906,26.18093490600586,0.0
2101,-2.90771484375,-2.799560546875,-3.9287109375,494.0,-470.0,309.0,-29.80309295654297,31.079172134399414,0.0,44.877925872802734,-41.38621139526367,27.401567459106445,-24.849334716796875,26.178373336791992,0.0
2106,-2.904541015625,-2.803466796875,-3.92529296875,492.0,-501.0,309.0,-29.86103057861328,31.054210662841797,0.0,44.91548156738281,-41.42445755004883,27.425155639648438,-24.845863342285156,26.173301696777344,0.0
2111,-2.908447265625,-2.803955078125,-3.92822265625,486.0,-481.0,330.0,-29.84164810180664,31.074243545532227,0.0,44.952579498291016,-41.46117401123047,27.450345993041992,-24.842731475830078,26.16990852355957,0.0
2116,-2.90625,-2.80419921875,-3.923828125,486.0,-475.0,331.0,-29.868305206298828,31.073129653930664,0.0,44.98967742919922,-41.497432708740234,27.47561264038086,-24.839794158935547,26.166980743408203,0.0
2121,-2.905517578125,-2.802734375,-3.93017578125,492.0,-485.0,326.0,-29.83175277709961,31.044099807739258,0.0,45.0272331237793,-41.534454345703125,27.500497817993164,-24.83616828918457,26.163110733032227,0.0
2126,-2.90625,-2.8046875,-3.926025390625,507.0,-477.0,300.0,-29.863666534423828,31.062252044677734,0.0,45.06593704223633,-41.570865631103516,27.523399353027344,-24.83163833618164,26.159990310668945,0.0
2131,-2.90673828125,-2.8046875,-3.9208984375,494.0,-488.0,312.0,-29.883071899414062,31.088415145874023,0.0,45.10364532470703,-41.608116149902344,27.547216415405273,-24.8282470703125,26.156225204467773,0.0
2136,-2.90478515625,-2.798828125,-3.9267578125,488.0,-473.0,313.0,-29.813383102416992,31.06422233581543,0.0,45.14089584350586,-41.644222259521484,27.571109771728516,-24.824857711791992,26.153453826904297,0.0
2141,-2.906494140625,-2.802001953125,-3.92578125,489.0,-498.0,288.0,-29.84023094177246,31.07361602783203,0.0,45.17822265625,-41.68223571777344,27.593093872070312,-24.82158851623535,26.148860931396484,0.0
2146,-2.9111328125,-2.8017578125,-3.923828125,474.0,-504.0,311.0,-29.8320369720459,31.123126983642578,0.0,45.21440505981445,-41.72071075439453,27.61683464050293,-24.819419860839844,26.14417266845703,0.0
2151,-2.91064453125,-2.802490234375,-3.934326171875,483.0,-478.0,295.0,-29.79732894897461,31.071762084960938,0.0,45.25127410888672,-41.757198333740234,27.639352798461914,-24.816341400146484,26.14113426208496,0.0
2156,-2.90625,-2.8046875,-3.925048828125,482.0,-509.0,330.0,-29.867643356323242,31.066423416137695,0.0,45.28806686401367,-41.79605484008789,27.66454315185547,-24.813825607299805,26.135725021362305,0.0
2161,-2.90771484375,-2.796142578125,-3.917724609375,505.0,-482.0,287.0,-29.81757164001465,31.13665771484375,0.0,45.32661819458008,-41.832847595214844,27.686450958251953,-24.809240341186523,26.132863998413086,0.0
2166,-2.906005859375,-2.80126953125,-3.927978515625,487.0,-507.0,300.0,-29.826295852661133,31.06220245361328,0.0,45.363792419433594,-41.871551513671875,27.709352493286133,-24.806102752685547,26.127620697021484,0.0
2171,-2.907958984375,-2.800048828125,-3.93115234375,511.0,-489.0,307.0,-29.796749114990234,31.069374084472656,0.0,45.402801513671875,-41.908878326416016,27.7327880859375,-24.800962448120117,26.12381935119629,0.0
2176,-2.9072265625,-2.802001953125,-3.929931640625,480.0,-493.0,325.0,-29.821144104003906,31.06226348876953,0.0,45.4394416809082,-41.946510314941406,27.757596969604492,-24.798364639282227,26.119686126708984,0.0
2181,-2.91015625,-2.805908203125,-3.92529296875,487.0,-485.0,319.0,-29.865638732910156,31.095680236816406,0.0,45.47661590576172,-41.9835319519043,27.78194808959961,-24.795547485351562,26.116405487060547,0.0
2186,-2.90771484375,-2.801513671875,-3.9169921875,493.0,-494.0,308.0,-29.868013381958008,31.12335205078125,0.0,45.51424789428711,-42.021240234375,27.80545997619629,-24.79230499267578,26.112646102905273,0.0
2191,-2.908447265625,-2.802001953125,-3.92333984375,501.0,-489.0,303.0,-29.844274520874023,31.101076126098633,0.0,45.552494049072266,-42.05856704711914,27.828590393066406,-24.788312911987305,26.109134674072266,0.0
2197,-2.906005859375,-2.8046875,-3.92529296875,508.0,-495.0,306.0,-29.867385864257812,31.06325340270996,0.0,45.59127426147461,-42.096351623535156,27.85194969177246,-24.783966064453125,26.10493278503418,0.0
2202,-2.908935546875,-2.799072265625,-3.925537109375,483.0,-499.0,317.0,-29.808008193969727,31.104873657226562,0.0,45.63551712036133,-42.14206314086914,27.8809871673584,-24.77391242980957,26.09326171875,0.0
2207,-2.907958984375,-2.80029296875,-3.92578125,473.0,-486.0,327.0,-29.82073402404785,31.091596603393555,0.0,45.67162322998047,-42.179161071777344,27.905948638916016,-24.7720890045166,26.090124130249023,0.0
2212,-2.905029296875,-2.802490234375,-3.92919921875,486.0,-481.0,333.0,-29.835041046142578,31.04475975036621,0.0,45.70872116088867,-42.215877532958984,27.931367874145508,-24.769380569458008,26.087064743041992,0.0
2217,-2.90673828125,-2.799560546875,-3.92919921875,475.0,-453.0,294.0,-29.804046630859375,31.06857681274414,0.0,45.74497985839844,-42.250457763671875,27.95380973815918,-24.767309188842773,26.0863037109375,0.0
2222,-2.908203125,-2.7978515625,-3.922119140625,512.0,-481.0,297.0,-29.81332778930664,31.116853713989258,0.0,45.78406524658203,-42.287174224853516,27.976482391357422,-24.762502670288086,26.083742141723633,0.0
2227,-2.90869140625,-2.802490234375,-3.921630859375,494.0,-488.0,319.0,-29.854801177978516,31.10902214050293,0.0,45.821773529052734,-42.324424743652344,28.00083351135254,-24.75936508178711,26.080608367919922,0.0
2232,-2.907470703125,-2.798828125,-3.928466796875,503.0,-495.0,319.0,-29.798355102539062,31.080320358276367,0.0,45.860172271728516,-42.36220932006836,28.025184631347656,-24.75518035888672,26.076765060424805,0.0
2237,-2.90478515625,-2.800048828125,-3.923095703125,508.0,-483.0,328.0,-29.839067459106445,31.076162338256836,0.0,45.89895248413086,-42.399078369140625,28.050222396850586,-24.750913619995117,26.073822021484375,0.0
2242,-2.907470703125,-2.802001953125,-3.927978515625,492.0,-463.0,298.0,-29.828350067138672,31.072734832763672,0.0,45.93650817871094,-42.43442153930664,28.07297134399414,-24.7478084564209,26.0723876953125,0.0
2247,-2.906005859375,-2.80078125,-3.924560546875,487.0,-504.0,326.0,-29.835893630981445,31.078304290771484,0.0,45.97368240356445,-42.472896575927734,28.097856521606445,-24.745147705078125,26.067886352539062,0.0
2252,-2.908203125,-2.797607421875,-3.926513671875,496.0,-492.0,315.0,-29.79330825805664,31.09878158569336,0.0,46.01154327392578,-42.51045227050781,28.121902465820312,-24.74152946472168,26.064455032348633,0.0
2257,-2.9052734375,-2.7998046875,-3.923095703125,485.0,-492.0,324.0,-29.835439682006836,31.081165313720703,0.0,46.04856491088867,-42.54800796508789,28.146635055541992,-24.73904800415039,26.060922622680664,0.0
2262,-2.90625,-2.80126953125,-3.923095703125,507.0,-502.0,301.0,-29.845430374145508,31.085206985473633,0.0,46.0872688293457,-42.58633041381836,28.169612884521484,-24.73497772216797,26.056676864624023,0.0
2267,-2.906494140625,-2.8017578125,-3.932861328125,504.0,-482.0,295.0,-29.809284210205078,31.044113159179688,0.0,46.1257438659668,-42.62312316894531,28.19213104248047,-24.730911254882812,26.053693771362305,0.0
2272,-2.905517578125,-2.804443359375,-3.92822265625,521.0,-481.0,337.0,-29.854774475097656,31.04723358154297,0.0,46.1655158996582,-42.65983963012695,28.21785545349121,-24.72588539123535,26.05082130432129,0.0
2277,-2.905029296875,-2.8037109375,-3.932373046875,516.0,-507.0,301.0,-29.832895278930664,31.027496337890625,0.0,46.20490646362305,-42.698543548583984,28.240833282470703,-24.721118927001953,26.045860290527344,0.0
2282,-2.904296875,-2.804931640625,-3.9189453125,505.0,-495.0,324.0,-29.900564193725586,31.07472801208496,0.0,46.24345779418945,-42.736328125,28.265565872192383,-24.717666625976562,26.04215431213379,0.0
2287,-2.905517578125,-2.80029296875,-3.9287109375,501.0,-489.0,301.0,-29.8161678314209,31.05779266357422,0.0,46.28170394897461,-42.77365493774414,28.288543701171875,-24.71396827697754,26.038808822631836,0.0
2292,-2.909912109375,-2.80078125,-3.926025390625,479.0,-469.0,300.0,-29.81816864013672,31.106075286865234,0.0,46.318267822265625,-42.80945587158203,28.311445236206055,-24.71196937561035,26.037321090698242,0.0
2297,-2.90673828125,-2.796630859375,-3.92578125,512.0,-495.0,313.0,-29.792068481445312,31.092130661010742,0.0,46.35735321044922,-42.84724044799805,28.335338592529297,-24.70730209350586,26.03377342224121,0.0
2302,-2.910400390625,-2.8037109375,-3.927978515625,515.0,-478.0,293.0,-29.834606170654297,31.093036651611328,0.0,46.39666748046875,-42.88372802734375,28.357704162597656,-24.702720642089844,26.031538009643555,0.0
2307,-2.906005859375,-2.795654296875,-3.923583984375,512.0,-483.0,307.0,-29.794578552246094,31.098133087158203,0.0,46.435752868652344,-42.920597076416016,28.381139755249023,-24.698122024536133,26.028966903686523,0.0
2312,-2.908203125,-2.802978515625,-3.925048828125,490.0,-497.0,326.0,-29.846677780151367,31.088659286499023,0.0,46.4731559753418,-42.958534240722656,28.406024932861328,-24.695566177368164,26.025283813476562,0.0
2317,-2.907470703125,-2.80078125,-3.92822265625,497.0,-470.0,313.0,-29.816585540771484,31.07541275024414,0.0,46.51109313964844,-42.99441146850586,28.42991828918457,-24.692289352416992,26.023578643798828,0.0
2322,-2.906494140625,-2.80615234375,-3.922607421875,510.0,-486.0,314.0,-29.889774322509766,31.074504852294922,0.0,46.550025939941406,-43.03150939941406,28.453887939453125,-24.68853759765625,26.020660400390625,0.0
2327,-2.9072265625,-2.804443359375,-3.92529296875,503.0,-478.0,338.0,-29.86155128479004,31.074636459350586,0.0,46.58842468261719,-43.067996978759766,28.47968864440918,-24.68514633178711,26.01836395263672,0.0
2333,-2.90478515625,-2.796875,-3.9208984375,502.0,-480.0,314.0,-29.819971084594727,31.095260620117188,0.0,46.626747131347656,-43.104637145996094,28.503658294677734,-24.681568145751953,26.01606559753418,0.0
2338,-2.906005859375,-2.801513671875,-3.927978515625,491.0,-487.0,328.0,-29.82845115661621,31.061458587646484,0.0,46.671722412109375,-43.14924621582031,28.53370475769043,-24.671554565429688,26.005733489990234,0.0
2343,-2.908447265625,-2.80224609375,-3.9248046875,493.0,-476.0,322.0,-29.840471267700195,31.094066619873047,0.0,46.709354400634766,-43.18558120727539,28.558284759521484,-24.668977737426758,26.003904342651367,0.0
2348,-2.907470703125,-2.79833984375,-3.919921875,495.0,-473.0,308.0,-29.82878875732422,31.118389129638672,0.0,46.74713897705078,-43.22168731689453,28.581796646118164,-24.666181564331055,26.002471923828125,0.0
2353,-2.909423828125,-2.800537109375,-3.9287109375,507.0,-482.0,303.0,-29.80657196044922,31.091081619262695,0.0,46.78584289550781,-43.258480072021484,28.60492706298828,-24.66234016418457,26.00017547607422,0.0
2358,-2.90771484375,-2.80029296875,-3.918701171875,500.0,-476.0,298.0,-29.85027313232422,31.119770050048828,0.0,46.82400894165039,-43.29481506347656,28.627676010131836,-24.65934181213379,25.998538970947266,0.0
2363,-2.908935546875,-2.804443359375,-3.92578125,483.0,-485.0,298.0,-29.854413986206055,31.08743667602539,0.0,46.860877990722656,-43.33183670043945,28.65042495727539,-24.65767478942871,25.99600601196289,0.0
2368,-2.90966796875,-2.802001953125,-3.926513671875,491.0,-506.0,326.0,-29.82769012451172,31.098134994506836,0.0,46.89835739135742,-43.37046432495117,28.675310134887695,-24.65522575378418,25.99196434020996,0.0
2373,-2.907470703125,-2.803955078125,-3.926513671875,489.0,-490.0,316.0,-29.851539611816406,31.07303810119629,0.0,46.93568420410156,-43.407867431640625,28.699432373046875,-24.653100967407227,25.988988876342773,0.0
2378,-2.908203125,-2.80517578125,-3.927978515625,486.0,-486.0,305.0,-29.854141235351562,31.06943702697754,0.0,46.972782135009766,-43.44496536254883,28.722715377807617,-24.651229858398438,25.986305236816406,0.0
2383,-2.908935546875,-2.802001953125,-3.921875,482.0,-472.0,303.0,-29.8487606048584,31.111597061157227,0.0,47.00957489013672,-43.480995178222656,28.745845794677734,-24.64963150024414,25.984981536865234,0.0
2388,-2.90869140625,-2.805419921875,-3.926025390625,496.0,-488.0,324.0,-29.862768173217773,31.081287384033203,0.0,47.04743576049805,-43.518245697021484,28.770578384399414,-24.647071838378906,25.982242584228516,0.0
2393,-2.908447265625,-2.8037109375,-3.9189453125,501.0,-467.0,329.0,-29.87724494934082,31.114648818969727,0.0,47.0856819152832,-43.55389404296875,28.795692443847656,-24.644243240356445,25.981334686279297,0.0
2398,-2.90380859375,-2.802490234375,-3.925537109375,497.0,-491.0,310.0,-29.85362434387207,31.049760818481445,0.0,47.123619079589844,-43.591373443603516,28.81935691833496,-24.641571044921875,25.97817039489746,0.0
2403,-2.906494140625,-2.800048828125,-3.9296875,487.0,-494.0,347.0,-29.807106018066406,31.0628719329834,0.0,47.16079330444336,-43.62908172607422,28.84584617614746,-24.63935661315918,25.974882125854492,0.0
2408,-2.902099609375,-2.8017578125,-3.925048828125,485.0,-473.0,296.0,-29.85429573059082,31.0391788482666,0.0,47.19781494140625,-43.66518783569336,28.86844253540039,-24.63762092590332,25.973045349121094,0.0
2413,-2.91015625,-2.796875,-3.924072265625,498.0,-484.0,287.0,-29.790878295898438,31.128490447998047,0.0,47.2358283996582,-43.70213317871094,28.890350341796875,-24.63448143005371,25.97098159790039,0.0
2418,-2.904541015625,-2.7978515625,-3.931884765625,509.0,-482.0,333.0,-29.78464698791504,31.043148040771484,0.0,47.27468490600586,-43.73892593383789,28.915769577026367,-24.630481719970703,25.968503952026367,0.0
2423,-2.906982421875,-2.80078125,-3.921142578125,496.0,-478.0,299.0,-29.846858978271484,31.1014404296875,0.0,47.31254577636719,-43.775413513183594,28.938594818115234,-24.627906799316406,25.966732025146484,0.0
2428,-2.91015625,-2.80078125,-3.92236328125,458.0,-483.0,327.0,-29.832317352294922,31.12387466430664,0.0,47.34750747680664,-43.81228256225586,28.96355628967285,-24.628128051757812,25.964738845825195,0.0
2433,-2.906494140625,-2.801025390625,-3.922607421875,489.0,-499.0,318.0,-29.844526290893555,31.090167999267578,0.0,47.38483428955078,-43.850372314453125,28.987831115722656,-24.626073837280273,25.961315155029297,0.0
2438,-2.90673828125,-2.796875,-3.92822265625,517.0,-490.0,295.0,-29.7843017578125,31.080934524536133,0.0,47.42430114746094,-43.88777542114258,29.01034927368164,-24.621501922607422,25.95853042602539,0.0
2443,-2.90673828125,-2.802734375,-3.9287109375,498.0,-467.0,311.0,-29.83403778076172,31.060993194580078,0.0,47.46231460571289,-43.923423767089844,29.034090042114258,-24.618730545043945,25.95737075805664,0.0
2448,-2.90869140625,-2.801025390625,-3.9287109375,491.0,-495.0,318.0,-29.81308364868164,31.083213806152344,0.0,47.499794006347656,-43.96120834350586,29.058364868164062,-24.616361618041992,25.954238891601562,0.0
2453,-2.907470703125,-2.80029296875,-3.91943359375,501.0,-480.0,325.0,-29.8480281829834,31.114505767822266,0.0,47.53804016113281,-43.99784851074219,29.083173751831055,-24.613481521606445,25.952470779418945,0.0
2458,-2.907470703125,-2.800537109375,-3.92041015625,499.0,-468.0,320.0,-29.846210479736328,31.10957908630371,0.0,47.57612991333008,-44.033573150634766,29.107601165771484,-24.610755920410156,25.951587677001953,0.0
2463,-2.9091796875,-2.802001953125,-3.927001953125,502.0,-495.0,346.0,-29.82717514038086,31.091794967651367,0.0,47.61445236206055,-44.07135772705078,29.134014129638672,-24.607688903808594,25.94853973388672,0.0
2469,-2.904052734375,-2.8056640625,-3.931396484375,491.0,-495.0,314.0,-29.857030868530273,31.017210006713867,0.0,47.65193176269531,-44.1091423034668,29.157983779907227,-24.605670928955078,25.94500732421875,0.0
2474,-2.908447265625,-2.804443359375,-3.92822265625,497.0,-459.0,323.0,-29.8459529876709,31.07275390625,0.0,47.69746017456055,-44.151187896728516,29.187572479248047,-24.595699310302734,25.93773651123047,0.0
2479,-2.904541015625,-2.80419921875,-3.9267578125,503.0,-519.0,300.0,-29.861526489257812,31.04572105407715,0.0,47.73585891723633,-44.1908073425293,29.210474014282227,-24.592975616455078,25.932737350463867,0.0
2484,-2.904296875,-2.799072265625,-3.92578125,492.0,-493.0,325.0,-29.82098388671875,31.063398361206055,0.0,47.773414611816406,-44.22843933105469,29.23528289794922,-24.590824127197266,25.929855346679688,0.0
2489,-2.906982421875,-2.801025390625,-3.9296875,494.0,-493.0,309.0,-29.814254760742188,31.06415367126465,0.0,47.81112289428711,-44.26607131958008,29.25887107849121,-24.588485717773438,25.926992416381836,0.0
2494,-2.90380859375,-2.80029296875,-3.927001953125,501.0,-499.0,324.0,-29.828262329101562,31.050199508666992,0.0,47.849369049072266,-44.304161071777344,29.28360366821289,-24.58572006225586,25.923595428466797,0.0
2499,-2.90966796875,-2.79931640625,-3.929443359375,478.0,-516.0,322.0,-29.792091369628906,31.093795776367188,0.0,47.88585662841797,-44.34355163574219,29.308183670043945,-24.584468841552734,25.919219970703125,0.0
2504,-2.909423828125,-2.80615234375,-3.9267578125,498.0,-484.0,313.0,-29.86404037475586,31.082300186157227,0.0,47.92387008666992,-44.380496978759766,29.332077026367188,-24.58218765258789,25.917217254638672,0.0
2509,-2.90673828125,-2.80419921875,-3.91845703125,511.0,-496.0,306.0,-29.888710021972656,31.1003475189209,0.0,47.9628791809082,-44.418357849121094,29.355436325073242,-24.579097747802734,25.9144344329834,0.0
2514,-2.90576171875,-2.806396484375,-3.92724609375,505.0,-491.0,276.0,-29.875242233276367,31.04757308959961,0.0,48.00143051147461,-44.45583724975586,29.37650489807129,-24.576387405395508,25.91168975830078,0.0
2519,-2.90771484375,-2.802978515625,-3.923095703125,523.0,-477.0,302.0,-29.856096267700195,31.092754364013672,0.0,48.04135513305664,-44.49224853515625,29.399559020996094,-24.57219696044922,25.910324096679688,0.0
2524,-2.908447265625,-2.80322265625,-3.921630859375,497.0,-498.0,313.0,-29.862003326416016,31.104656219482422,0.0,48.07929229736328,-44.5302619934082,29.423452377319336,-24.570039749145508,25.90744972229004,0.0
2529,-2.908447265625,-2.803955078125,-3.926513671875,495.0,-488.0,302.0,-29.848596572875977,31.081544876098633,0.0,48.1170768737793,-44.56751251220703,29.44650650024414,-24.56795310974121,25.90519142150879,0.0
2534,-2.908447265625,-2.80517578125,-3.93310546875,506.0,-486.0,320.0,-29.832561492919922,31.049680709838867,0.0,48.155704498291016,-44.604610443115234,29.47093391418457,-24.56493377685547,25.902881622314453,0.0
2539,-2.90625,-2.802978515625,-3.918212890625,495.0,-491.0,316.0,-29.88040542602539,31.100868225097656,0.0,48.19348907470703,-44.64208984375,29.49505615234375,-24.563085556030273,25.90054702758789,0.0
2544,-2.907470703125,-2.799560546875,-3.925537109375,483.0,-491.0,330.0,-29.816730499267578,31.090620040893555,0.0,48.2303581237793,-44.679569244384766,29.520246505737305,-24.561725616455078,25.898155212402344,0.0
2549,-2.90673828125,-2.799072265625,-3.93115234375,479.0,-463.0,303.0,-29.791799545288086,31.06171417236328,0.0,48.26692199707031,-44.71491241455078,29.543376922607422,-24.56050682067871,25.897705078125,0.0
2554,-2.908203125,-2.8056640625,-3.91943359375,497.0,-483.0,311.0,-29.893232345581055,31.104455947875977,0.0,48.30485916137695,-44.75178146362305,29.56711769104004,-24.55860710144043,25.89602279663086,0.0
2559,-2.906005859375,-2.801025390625,-3.928466796875,478.0,-475.0,332.0,-29.82215690612793,31.06085968017578,0.0,48.341346740722656,-44.78804016113281,29.59246063232422,-24.557680130004883,25.89466094970703,0.0
2564,-2.905517578125,-2.801025390625,-3.927734375,489.0,-490.0,309.0,-29.82660484313965,31.059734344482422,0.0,48.3786735534668,-44.825443267822266,29.61604881286621,-24.555950164794922,25.89215850830078,0.0
2569,-2.908203125,-2.802978515625,-3.920654296875,495.0,-494.0,307.0,-29.864559173583984,31.107452392578125,0.0,48.41645812988281,-44.86315155029297,29.639484405517578,-24.554027557373047,25.889684677124023,0.0
2574,-2.906494140625,-2.8056640625,-3.925537109375,501.0,-486.0,289.0,-29.87353515625,31.06348419189453,0.0,48.45470428466797,-44.90024948120117,29.661544799804688,-24.55171775817871,25.887535095214844,0.0
2579,-2.9072265625,-2.8037109375,-3.93359375,474.0,-476.0,328.0,-29.821331024169922,31.041425704956055,0.0,48.49088668823242,-44.93658447265625,29.686582565307617,-24.551116943359375,25.88600730895996,0.0
2584,-2.91015625,-2.80419921875,-3.924072265625,481.0,-494.0,310.0,-29.85552978515625,31.106117248535156,0.0,48.52760314941406,-44.97429275512695,29.710247039794922,-24.550212860107422,25.88355255126953,0.0
2589,-2.90771484375,-2.80322265625,-3.928466796875,490.0,-471.0,318.0,-29.83639907836914,31.069053649902344,0.0,48.565006256103516,-45.01024627685547,29.734521865844727,-24.548500061035156,25.882606506347656,0.0
2594,-2.906982421875,-2.80615234375,-3.926513671875,479.0,-468.0,331.0,-29.872392654418945,31.06208038330078,0.0,48.60157012939453,-45.04597091674805,29.759788513183594,-24.547870635986328,25.88184356689453,0.0
2599,-2.908935546875,-2.802734375,-3.92431640625,486.0,-481.0,309.0,-29.845294952392578,31.09891700744629,0.0,48.638668060302734,-45.08268737792969,29.783376693725586,-24.546527862548828,25.880342483520508,0.0
2605,-2.908203125,-2.79931640625,-3.925048828125,510.0,-500.0,296.0,-29.814353942871094,31.099838256835938,0.0,48.6776008605957,-45.120853424072266,29.805973052978516,-24.54316520690918,25.877412796020508,0.0
2610,-2.90771484375,-2.801513671875,-3.92529296875,479.0,-492.0,313.0,-29.834228515625,31.087833404541016,0.0,48.72147750854492,-45.16592025756836,29.834644317626953,-24.535140991210938,25.867664337158203,0.0
2615,-2.906005859375,-2.800537109375,-3.936767578125,484.0,-493.0,339.0,-29.78411102294922,31.026893615722656,0.0,48.7584228515625,-45.20355224609375,29.86052131652832,-24.533714294433594,25.864952087402344,0.0
2620,-2.9091796875,-2.797119140625,-3.918701171875,459.0,-484.0,331.0,-29.817808151245117,31.142253875732422,0.0,48.793460845947266,-45.24049758911133,29.885787963867188,-24.534414291381836,25.863710403442383,0.0
2625,-2.90771484375,-2.7998046875,-3.92236328125,479.0,-491.0,312.0,-29.831058502197266,31.1055850982666,0.0,48.83002471923828,-45.277976989746094,29.909605026245117,-24.533676147460938,25.8616943359375,0.0
2630,-2.905517578125,-2.80322265625,-3.9189453125,474.0,-469.0,278.0,-29.88178825378418,31.090600967407227,0.0,48.866207122802734,-45.313777923583984,29.93082618713379,-24.533658981323242,25.861255645751953,0.0
2635,-2.91064453125,-2.803466796875,-3.927001953125,491.0,-488.0,299.0,-29.83568572998047,31.100080490112305,0.0,48.9036865234375,-45.35102844238281,29.953651428222656,-24.53203773498535,25.85943603515625,0.0
2640,-2.9111328125,-2.79931640625,-3.927734375,500.0,-477.0,315.0,-29.79462242126465,31.113861083984375,0.0,48.94185256958008,-45.3874397277832,29.977697372436523,-24.529464721679688,25.858552932739258,0.0
2645,-2.905517578125,-2.801513671875,-3.920654296875,511.0,-478.0,320.0,-29.8597354888916,31.088518142700195,0.0,48.98086166381836,-45.423927307128906,30.002124786376953,-24.526506423950195,25.857421875,0.0
2650,-2.90576171875,-2.802978515625,-3.926513671875,508.0,-490.0,306.0,-29.848072052001953,31.061124801635742,0.0,49.0196418762207,-45.46133041381836,30.025484085083008,-24.523712158203125,25.855199813842773,0.0
2655,-2.904296875,-2.8046875,-3.92529296875,488.0,-512.0,320.0,-29.872535705566406,31.048358917236328,0.0,49.05689239501953,-45.50041580200195,30.049911499023438,-24.522611618041992,25.85123634338379,0.0
2660,-2.908203125,-2.803466796875,-3.920166015625,488.0,-464.0,319.0,-29.87085723876953,31.108047485351562,0.0,49.09414291381836,-45.53583526611328,30.074262619018555,-24.521503448486328,25.851333618164062,0.0
2665,-2.9072265625,-2.80224609375,-3.928955078125,504.0,-489.0,284.0,-29.827268600463867,31.065690994262695,0.0,49.13261795043945,-45.57316207885742,30.0959415435791,-24.518892288208008,25.849245071411133,0.0
2670,-2.90771484375,-2.800537109375,-3.921142578125,485.0,-491.0,322.0,-29.842493057250977,31.108572006225586,0.0,49.169639587402344,-45.61064147949219,30.120521545410156,-24.51783561706543,25.84730339050293,0.0
2675,-2.90625,-2.804443359375,-3.922119140625,503.0,-485.0,325.0,-29.87742042541504,31.07968521118164,0.0,49.208038330078125,-45.64766311645508,30.14533042907715,-24.51565170288086,25.845630645751953,0.0
2680,-2.908203125,-2.7998046875,-3.92529296875,480.0,-504.0,319.0,-29.817672729492188,31.09730339050293,0.0,49.24467849731445,-45.68613815307617,30.169681549072266,-24.514820098876953,25.842641830444336,0.0
2685,-2.908935546875,-2.802978515625,-3.926513671875,496.0,-477.0,297.0,-29.838512420654297,31.088777542114258,0.0,49.28253936767578,-45.72254943847656,30.192354202270508,-24.512916564941406,25.841659545898438,0.0
2690,-2.90869140625,-2.800537109375,-3.92724609375,488.0,-474.0,321.0,-29.814727783203125,31.090965270996094,0.0,49.31978988647461,-45.758731842041016,30.21685791015625,-24.5114688873291,25.84092140197754,0.0
2695,-2.9091796875,-2.7998046875,-3.928955078125,499.0,-476.0,332.0,-29.799850463867188,31.09014320373535,0.0,49.357879638671875,-45.795066833496094,30.24220085144043,-24.509092330932617,25.84002685546875,0.0
2700,-2.907470703125,-2.79931640625,-3.92724609375,505.0,-497.0,303.0,-29.807626724243164,31.08405303955078,0.0,49.39643096923828,-45.833003997802734,30.265331268310547,-24.506324768066406,25.837499618530273,0.0
2705,-2.910888671875,-2.805419921875,-3.926025390625,490.0,-480.0,310.0,-29.85614585876465,31.100419998168945,0.0,49.433834075927734,-45.86964416503906,30.28899574279785,-24.505033493041992,25.836383819580078,0.0
2710,-2.906494140625,-2.8017578125,-3.93017578125,489.0,-476.0,291.0,-29.820199966430664,31.05558204650879,0.0,49.471160888671875,-45.90597915649414,30.311208724975586,-24.503582000732422,25.835275650024414,0.0
2715,-2.907958984375,-2.801513671875,-3.9228515625,492.0,-477.0,316.0,-29.84342384338379,31.10040283203125,0.0,49.50871658325195,-45.94239044189453,30.335330963134766,-24.502063751220703,25.834396362304688,0.0
2720,-2.9072265625,-2.80029296875,-3.918701171875,492.0,-488.0,333.0,-29.851747512817383,31.11551284790039,0.0,49.54627227783203,-45.97964096069336,30.360750198364258,-24.500608444213867,25.83278465270996,0.0
2725,-2.909423828125,-2.80126953125,-3.9189453125,476.0,-486.0,310.0,-29.852741241455078,31.130632400512695,0.0,49.58260726928711,-46.01673889160156,30.384414672851562,-24.50037956237793,25.831432342529297,0.0
2730,-2.908935546875,-2.80419921875,-3.92431640625,503.0,-490.0,325.0,-29.858219146728516,31.09444236755371,0.0,49.62100601196289,-46.054141998291016,30.409223556518555,-24.498136520385742,25.829538345336914,0.0
2735,-2.90673828125,-2.802490234375,-3.923828125,502.0,-504.0,332.0,-29.85175132751465,31.082605361938477,0.0,49.65932846069336,-46.09261703491211,30.434566497802734,-24.49593734741211,25.826513290405273,0.0
2741,-2.904296875,-2.802490234375,-3.919189453125,503.0,-503.0,298.0,-29.878013610839844,31.081151962280273,0.0,49.69772720336914,-46.13101577758789,30.45731544494629,-24.49384880065918,25.823570251464844,0.0
2746,-2.909912109375,-2.802734375,-3.93115234375,500.0,-476.0,320.0,-29.8145694732666,31.078203201293945,0.0,49.7435302734375,-46.174617767333984,30.48662757873535,-24.484094619750977,25.815553665161133,0.0
2751,-2.90869140625,-2.798583984375,-3.919677734375,488.0,-492.0,301.0,-29.82825469970703,31.129329681396484,0.0,49.78078079223633,-46.21217346191406,30.509605407714844,-24.48298454284668,25.813936233520508,0.0
2756,-2.90869140625,-2.804443359375,-3.921630859375,494.0,-494.0,308.0,-29.872037887573242,31.103050231933594,0.0,49.81848907470703,-46.249881744384766,30.533117294311523,-24.481714248657227,25.811996459960938,0.0
2761,-2.904296875,-2.802001953125,-3.923095703125,471.0,-482.0,325.0,-29.857786178588867,31.065942764282227,0.0,49.85444259643555,-46.28667449951172,30.557926177978516,-24.482097625732422,25.81072425842285,0.0
2766,-2.908203125,-2.80322265625,-3.925537109375,507.0,-486.0,324.0,-29.846845626831055,31.085826873779297,0.0,49.89314651489258,-46.32377243041992,30.582658767700195,-24.47966957092285,25.80928611755371,0.0
2771,-2.905517578125,-2.802001953125,-3.92724609375,506.0,-485.0,321.0,-29.837209701538086,31.05884552001953,0.0,49.9317741394043,-46.36079406738281,30.607162475585938,-24.477264404296875,25.80774688720703,0.0
2776,-2.90673828125,-2.800537109375,-3.92626953125,483.0,-510.0,341.0,-29.82457733154297,31.078125,0.0,49.96864318847656,-46.39972686767578,30.63319206237793,-24.47652816772461,25.8044490814209,0.0
2781,-2.905029296875,-2.80126953125,-3.929443359375,503.0,-481.0,321.0,-29.82327651977539,31.047433853149414,0.0,50.007041931152344,-46.43644332885742,30.657695770263672,-24.474267959594727,25.803159713745117,0.0
2786,-2.908447265625,-2.7998046875,-3.917236328125,499.0,-470.0,314.0,-29.84971046447754,31.133926391601562,0.0,50.04513168334961,-46.472320556640625,30.681665420532227,-24.472497940063477,25.80328941345215,0.0
2791,-2.9091796875,-2.80224609375,-3.917724609375,464.0,-476.0,309.0,-29.8670711517334,31.1307430267334,0.0,50.08055114746094,-46.5086555480957,30.70525360107422,-24.473506927490234,25.80293846130371,0.0
2796,-2.9072265625,-2.800048828125,-3.925048828125,484.0,-468.0,315.0,-29.823762893676758,31.089092254638672,0.0,50.117496490478516,-46.54438018798828,30.729299545288086,-24.47269630432129,25.80291175842285,0.0
2801,-2.90673828125,-2.800537109375,-3.922119140625,480.0,-479.0,329.0,-29.84146499633789,31.09588050842285,0.0,50.154136657714844,-46.5809440612793,30.754413604736328,-24.472309112548828,25.802091598510742,0.0
2806,-2.90673828125,-2.800537109375,-3.927978515625,493.0,-494.0,300.0,-29.817628860473633,31.070819854736328,0.0,50.191768646240234,-46.61865234375,30.777315139770508,-24.470773696899414,25.79996681213379,0.0
2811,-2.908203125,-2.798583984375,-3.9267578125,498.0,-495.0,311.0,-29.800941467285156,31.094757080078125,0.0,50.22978210449219,-46.656436920166016,30.801055908203125,-24.468753814697266,25.797937393188477,0.0
2816,-2.9072265625,-2.8017578125,-3.9248046875,513.0,-469.0,332.0,-29.839841842651367,31.08492088317871,0.0,50.268943786621094,-46.692237854003906,30.826398849487305,-24.46586799621582,25.797822952270508,0.0
2821,-2.90771484375,-2.802490234375,-3.925048828125,496.0,-479.0,292.0,-29.843839645385742,31.085895538330078,0.0,50.30680465698242,-46.72880172729492,30.84868812561035,-24.464311599731445,25.796951293945312,0.0
2826,-2.908447265625,-2.801025390625,-3.9228515625,476.0,-497.0,323.0,-29.8376407623291,31.10614776611328,0.0,50.3431396484375,-46.76673889160156,30.87334442138672,-24.464237213134766,25.79485321044922,0.0
2831,-2.910400390625,-2.799072265625,-3.9208984375,497.0,-492.0,314.0,-29.822446823120117,31.13749885559082,0.0,50.38107681274414,-46.80429458618164,30.897314071655273,-24.46246337890625,25.793354034423828,0.0
2836,-2.905517578125,-2.802978515625,-3.917236328125,477.0,-502.0,314.0,-29.886598587036133,31.09865951538086,0.0,50.41748809814453,-46.84261703491211,30.921283721923828,-24.462644577026367,25.790843963623047,0.0
2841,-2.905029296875,-2.799560546875,-3.92626953125,492.0,-465.0,310.0,-29.821102142333984,31.066205978393555,0.0,50.45504379272461,-46.87811279296875,30.944948196411133,-24.461244583129883,25.79093360900879,0.0
2846,-2.9091796875,-2.800048828125,-3.925537109375,501.0,-468.0,320.0,-29.815893173217773,31.104021072387695,0.0,50.493289947509766,-46.91383743286133,30.969375610351562,-24.45913314819336,25.791046142578125,0.0
2851,-2.90869140625,-2.802734375,-3.919921875,480.0,-487.0,303.0,-29.863910675048828,31.11558723449707,0.0,50.529930114746094,-46.951011657714844,30.99250602722168,-24.45894432067871,25.7897891998291,0.0
2856,-2.908203125,-2.801513671875,-3.9228515625,511.0,-473.0,310.0,-29.842687606811523,31.102529525756836,0.0,50.568939208984375,-46.987117767333984,31.016170501708984,-24.456260681152344,25.789512634277344,0.0
2861,-2.909912109375,-2.800048828125,-3.93017578125,499.0,-483.0,331.0,-29.794845581054688,31.090557098388672,0.0,50.60702896118164,-47.02398681640625,31.04143714904785,-24.454179763793945,25.788393020629883,0.0
2866,-2.90869140625,-2.803955078125,-3.91650390625,471.0,-483.0,329.0,-29.888607025146484,31.12647819519043,0.0,50.642982482910156,-47.060855865478516,31.066551208496094,-24.45486068725586,25.787517547607422,0.0
2871,-2.9091796875,-2.800048828125,-3.930419921875,480.0,-489.0,332.0,-29.796056747436523,31.0831356048584,0.0,50.679622650146484,-47.098182678222656,31.091894149780273,-24.45423126220703,25.785900115966797,0.0
2877,-2.90869140625,-2.802001953125,-3.93310546875,503.0,-488.0,345.0,-29.803844451904297,31.06146240234375,0.0,50.718021392822266,-47.135433197021484,31.11823081970215,-24.4519100189209,25.78421974182129,0.0
2882,-2.906494140625,-2.799560546875,-3.925048828125,516.0,-485.0,310.0,-29.821657180786133,31.084196090698242,0.0,50.765289306640625,-47.17985916137695,31.14662742614746,-24.44101333618164,25.77567481994629,0.0
2887,-2.906005859375,-2.799560546875,-3.9208984375,506.0,-495.0,309.0,-29.84001922607422,31.097700119018555,0.0,50.803916931152344,-47.21764373779297,31.170215606689453,-24.438892364501953,25.77387046813965,0.0
