Time,Acc_low_X,Acc_low_Y,Acc_low_Z,Gyro_low_X,Gyro_low_Y,Gyro_low_Z,Acc_X,Acc_Y,Acc_Z,Gyro_X,Gyro_Y,Gyro_Z,Euler_X,Euler_Y,Euler_Z
5,-1.92529296875,-2.822998046875,-4.950927734375,516.0,-476.0,279.0,-27.987409591674805,18.66586685180664,0.0,117.91584777832031,-108.77508544921875,63.7568244934082,-27.62200927734375,18.346698760986328,0.0
10,-1.92626953125,-2.824462890625,-4.958984375,539.0,-473.0,295.0,-27.964611053466797,18.651147842407227,0.0,117.95699310302734,-108.81119537353516,63.77934265136719,-27.77250099182129,18.48065948486328,0.0
15,-1.925537109375,-2.822509765625,-4.961181640625,491.0,-499.0,290.0,-27.94025230407715,18.641679763793945,0.0,117.99447631835938,-108.84928894042969,63.80147933959961,-27.80337905883789,18.508888244628906,0.0
20,-1.919189453125,-2.823974609375,-4.95703125,485.0,-501.0,310.0,-27.98006248474121,18.593196868896484,0.0,118.03150177001953,-108.88753509521484,63.82514190673828,-27.81975746154785,18.50126838684082,0.0
25,-1.921630859375,-2.828125,-4.953369140625,518.0,-508.0,305.0,-28.026262283325195,18.61863899230957,0.0,118.071044921875,-108.92631530761719,63.84842300415039,-27.82941436767578,18.49371337890625,0.0
30,-1.91796875,-2.817626953125,-4.962646484375,527.0,-489.0,301.0,-27.905296325683594,18.57689666748047,0.0,118.11127471923828,-108.9636459350586,63.87139892578125,-27.808536529541016,18.476469039916992,0.0
35,-1.92431640625,-2.82666015625,-4.958740234375,515.0,-479.0,300.0,-27.987239837646484,18.630882263183594,0.0,118.15058898925781,-109.00021362304688,63.8942985534668,-27.800376892089844,18.467191696166992,0.0
40,-1.927490234375,-2.82666015625,-4.9609375,502.0,-493.0,286.0,-27.97297477722168,18.65367889404297,0.0,118.18891143798828,-109.03784942626953,63.91613006591797,-27.788433074951172,18.45758628845215,0.0
45,-1.923095703125,-2.822021484375,-4.956787109375,505.0,-437.0,297.0,-27.958358764648438,18.632015228271484,0.0,118.22746276855469,-109.07120513916016,63.93880081176758,-27.77306365966797,18.447330474853516,0.0
50,-1.927001953125,-2.82763671875,-4.954833984375,519.0,-472.0,298.0,-28.007362365722656,18.6639404296875,0.0,118.26708221435547,-109.10723876953125,63.9615478515625,-27.760866165161133,18.43659019470215,0.0
55,-1.925537109375,-2.826416015625,-4.9560546875,512.0,-451.0,289.0,-27.994396209716797,18.649349212646484,0.0,118.30616760253906,-109.14166259765625,63.98360824584961,-27.746599197387695,18.424663543701172,0.0
60,-1.921875,-2.82275390625,-4.958251953125,531.0,-461.0,298.0,-27.96038818359375,18.61603355407715,0.0,118.3467025756836,-109.1768569946289,64.00635528564453,-27.727293014526367,18.408384323120117,0.0
65,-1.921630859375,-2.824462890625,-4.956787109375,498.0,-479.0,294.0,-27.981245040893555,18.615131378173828,0.0,118.38471984863281,-109.21342468261719,64.02880096435547,-27.711782455444336,18.390573501586914,0.0
70,-1.924072265625,-2.82958984375,-4.95849609375,516.0,-502.0,326.0,-28.013254165649414,18.624916076660156,0.0,118.42411041259766,-109.25174713134766,64.0536880493164,-27.696800231933594,18.371776580810547,0.0
75,-1.92236328125,-2.824951171875,-4.95751953125,509.0,-495.0,310.0,-27.981115341186523,18.61906623840332,0.0,118.46296691894531,-109.28953552246094,64.07735443115234,-27.67955207824707,18.35304832458496,0.0
80,-1.9267578125,-2.82080078125,-4.960205078125,519.0,-493.0,295.0,-27.927974700927734,18.657833099365234,0.0,118.5025863647461,-109.3271713256836,64.0998764038086,-27.657997131347656,18.336885452270508,0.0
85,-1.922119140625,-2.828857421875,-4.95556640625,507.0,-473.0,283.0,-28.02246856689453,18.616140365600586,0.0,118.54129028320312,-109.36328125,64.1214828491211,-27.64310073852539,18.319398880004883,0.0
90,-1.925048828125,-2.824951171875,-4.9599609375,488.0,-477.0,279.0,-27.966623306274414,18.636831283569336,0.0,118.57854461669922,-109.39969635009766,64.14278411865234,-27.6259765625,18.3027286529541,0.0
95,-1.928955078125,-2.821044921875,-4.955810546875,514.0,-473.0,295.0,-27.944740295410156,18.68891143798828,0.0,118.61778259277344,-109.43580627441406,64.1653060913086,-27.60567283630371,18.288955688476562,0.0
100,-1.923583984375,-2.82666015625,-4.9560546875,500.0,-474.0,298.0,-27.999605178833008,18.631370544433594,0.0,118.65595245361328,-109.47199249267578,64.18805694580078,-27.58922576904297,18.271804809570312,0.0
105,-1.928466796875,-2.828125,-4.950439453125,510.0,-455.0,287.0,-28.02739715576172,18.68804168701172,0.0,118.69488525390625,-109.50672912597656,64.20996856689453,-27.573148727416992,18.25867462158203,0.0
110,-1.926513671875,-2.82421875,-4.95556640625,517.0,-466.0,291.0,-27.97638511657715,18.662757873535156,0.0,118.7343521118164,-109.54230499267578,64.23218536376953,-27.553937911987305,18.24321746826172,0.0
115,-1.927001953125,-2.82373046875,-4.9619140625,521.0,-490.0,310.0,-27.94510269165039,18.651107788085938,0.0,118.77412414550781,-109.5797119140625,64.25585174560547,-27.533039093017578,18.225313186645508,0.0
121,-1.919189453125,-2.826171875,-4.949951171875,489.0,-464.0,294.0,-28.02805519104004,18.608570098876953,0.0,118.81145477294922,-109.6151351928711,64.2782974243164,-27.51806640625,18.207475662231445,0.0
126,-1.921142578125,-2.8232421875,-4.958984375,510.0,-466.0,298.0,-27.96262550354004,18.606761932373047,0.0,118.85816955566406,-109.65782165527344,64.30559539794922,-27.491178512573242,18.182628631591797,0.0
131,-1.920166015625,-2.822998046875,-4.9580078125,529.0,-486.0,302.0,-27.96621322631836,18.60089683532715,0.0,118.89855194091797,-109.6949234008789,64.32865142822266,-27.470813751220703,18.1632137298584,0.0
136,-1.922607421875,-2.826416015625,-4.953369140625,531.0,-478.0,297.0,-28.01032066345215,18.630023956298828,0.0,118.9390869140625,-109.73141479492188,64.35132598876953,-27.451988220214844,18.14556121826172,0.0
141,-1.92822265625,-2.825927734375,-4.955078125,495.0,-497.0,292.0,-27.99001121520996,18.6768798828125,0.0,118.97687530517578,-109.76935577392578,64.37361907958984,-27.43499755859375,18.12818145751953,0.0
146,-1.924560546875,-2.824951171875,-4.95556640625,493.0,-479.0,288.0,-27.985698699951172,18.64404296875,0.0,119.01451110839844,-109.80592346191406,64.3956069946289,-27.417896270751953,18.11089515686035,0.0
151,-1.924560546875,-2.8251953125,-4.952880859375,508.0,-458.0,284.0,-27.998933792114258,18.650774002075195,0.0,119.05329132080078,-109.84088897705078,64.41728973388672,-27.40004539489746,18.0953426361084,0.0
156,-1.92626953125,-2.823486328125,-4.955078125,499.0,-473.0,298.0,-27.972654342651367,18.662952423095703,0.0,119.09138488769531,-109.87699890136719,64.4400405883789,-27.381925582885742,18.0789794921875,0.0
161,-1.9208984375,-2.81982421875,-4.958740234375,516.0,-461.0,311.0,-27.935298919677734,18.61033821105957,0.0,119.13077545166016,-109.91219329833984,64.46378326416016,-27.3613338470459,18.06175422668457,0.0
166,-1.923583984375,-2.8251953125,-4.9619140625,516.0,-465.0,295.0,-27.96291732788086,18.618106842041016,0.0,119.170166015625,-109.94769287109375,64.4863052368164,-27.341672897338867,18.04447364807129,0.0
171,-1.92041015625,-2.826171875,-4.958740234375,493.0,-498.0,292.0,-27.98944091796875,18.596399307250977,0.0,119.20780181884766,-109.98571014404297,64.50859832763672,-27.32453155517578,18.024097442626953,0.0
176,-1.927490234375,-2.825439453125,-4.956787109375,494.0,-436.0,291.0,-27.979984283447266,18.66649055480957,0.0,119.24551391601562,-110.01898956298828,64.53081512451172,-27.306974411010742,18.01045799255371,0.0
181,-1.92578125,-2.824951171875,-4.952392578125,519.0,-495.0,264.0,-27.996938705444336,18.6634464263916,0.0,119.2851333618164,-110.05677795410156,64.55096435546875,-27.288000106811523,17.992216110229492,0.0
186,-1.92333984375,-2.830078125,-4.959716796875,492.0,-497.0,308.0,-28.01345443725586,18.614360809326172,0.0,119.32269287109375,-110.09471893310547,64.57447814941406,-27.271469116210938,17.97246742248535,0.0
191,-1.924072265625,-2.822509765625,-4.95703125,492.0,-506.0,303.0,-27.959871292114258,18.639442443847656,0.0,119.3602523803711,-110.13334655761719,64.59761047363281,-27.25341033935547,17.952795028686523,0.0
196,-1.927001953125,-2.82177734375,-4.956298828125,531.0,-466.0,304.0,-27.9520263671875,18.668901443481445,0.0,119.40078735351562,-110.1689224243164,64.62081909179688,-27.232240676879883,17.93691635131836,0.0
201,-1.9208984375,-2.828857421875,-4.954345703125,493.0,-495.0,300.0,-28.029531478881836,18.608352661132812,0.0,119.43842315673828,-110.20671081542969,64.64372253417969,-27.215957641601562,17.917266845703125,0.0
206,-1.927734375,-2.824951171875,-4.95849609375,494.0,-445.0,288.0,-27.9683780670166,18.664905548095703,0.0,119.47613525390625,-110.24067687988281,64.66571044921875,-27.197982788085938,17.902820587158203,0.0
211,-1.925537109375,-2.825927734375,-4.9521484375,489.0,-467.0,304.0,-28.006561279296875,18.660415649414062,0.0,119.51346588134766,-110.27632904052734,64.68891906738281,-27.181303024291992,17.88653564453125,0.0
216,-1.922607421875,-2.828369140625,-4.955810546875,495.0,-472.0,284.0,-28.016557693481445,18.620635986328125,0.0,119.55125427246094,-110.31236267089844,64.71060180664062,-27.164358139038086,17.8688907623291,0.0
221,-1.926025390625,-2.8271484375,-4.951416015625,501.0,-452.0,298.0,-28.019081115722656,18.664913177490234,0.0,119.5895004272461,-110.34686279296875,64.73335266113281,-27.146970748901367,17.85378646850586,0.0
226,-1.922119140625,-2.81787109375,-4.957275390625,501.0,-493.0,283.0,-27.922992706298828,18.628154754638672,0.0,119.62774658203125,-110.3844985961914,64.75495910644531,-27.12734603881836,17.834720611572266,0.0
231,-1.916259765625,-2.82470703125,-4.956787109375,518.0,-488.0,315.0,-27.991958618164062,18.566303253173828,0.0,119.66728973388672,-110.4217529296875,64.77900695800781,-27.108057022094727,17.81468963623047,0.0
236,-1.922119140625,-2.823974609375,-4.954833984375,496.0,-479.0,302.0,-27.984485626220703,18.62542724609375,0.0,119.70515441894531,-110.45832061767578,64.80206298828125,-27.09026336669922,17.796722412109375,0.0
241,-1.92529296875,-2.825927734375,-4.95556640625,519.0,-484.0,305.0,-27.992719650268555,18.6491756439209,0.0,119.7447738647461,-110.49526977539062,64.82534790039062,-27.070920944213867,17.778915405273438,0.0
246,-1.92724609375,-2.823486328125,-4.959716796875,504.0,-477.0,312.0,-27.951786041259766,18.659482955932617,0.0,119.78324890136719,-110.53168487548828,64.84916687011719,-27.051855087280273,17.76186180114746,0.0
251,-1.9267578125,-2.820068359375,-4.957275390625,529.0,-452.0,288.0,-27.933988571166992,18.666688919067383,0.0,119.8236312866211,-110.5661849975586,64.87115478515625,-27.03058433532715,17.74681854248047,0.0
257,-1.922119140625,-2.824462890625,-4.955322265625,485.0,-452.0,281.0,-27.986557006835938,18.623401641845703,0.0,119.86065673828125,-110.6006851196289,64.89260864257812,-27.013757705688477,17.730844497680664,0.0
262,-1.92333984375,-2.824462890625,-4.96337890625,483.0,-474.0,304.0,-27.95107078552246,18.613143920898438,0.0,119.90489959716797,-110.64410400390625,64.92045593261719,-26.989139556884766,17.7059326171875,0.0
267,-1.92333984375,-2.82568359375,-4.955810546875,503.0,-480.0,305.0,-27.99281120300293,18.631284713745117,0.0,119.94329833984375,-110.68074798583984,64.94374084472656,-26.971214294433594,17.688190460205078,0.0
272,-1.920654296875,-2.827880859375,-4.95751953125,520.0,-485.0,303.0,-28.008487701416016,18.59925079345703,0.0,119.98299407958984,-110.7177734375,64.96687316894531,-26.952316284179688,17.66947364807129,0.0
277,-1.92724609375,-2.8271484375,-4.958251953125,521.0,-449.0,286.0,-27.988637924194336,18.657840728759766,0.0,120.02276611328125,-110.75204467773438,64.98870849609375,-26.9329776763916,17.65461540222168,0.0
282,-1.925048828125,-2.82373046875,-4.96240234375,500.0,-487.0,294.0,-27.94622230529785,18.632219314575195,0.0,120.0609359741211,-110.78922271728516,65.01115417480469,-26.914445877075195,17.636390686035156,0.0
287,-1.923583984375,-2.828857421875,-4.9609375,513.0,-459.0,284.0,-27.997732162475586,18.61517906188965,0.0,120.10009765625,-110.82426452636719,65.0328369140625,-26.895912170410156,17.619983673095703,0.0
292,-1.922607421875,-2.823486328125,-4.957275390625,507.0,-466.0,301.0,-27.96942710876465,18.624116897583008,0.0,120.13880157470703,-110.8598403930664,65.05581665039062,-26.87732696533203,17.60321807861328,0.0
297,-1.927490234375,-2.82177734375,-4.95654296875,515.0,-457.0,323.0,-27.95022201538086,18.672658920288086,0.0,120.17811584472656,-110.89472961425781,65.08047485351562,-26.85782241821289,17.58799934387207,0.0
302,-1.9208984375,-2.822998046875,-4.96337890625,516.0,-477.0,304.0,-27.94269371032715,18.593338012695312,0.0,120.2175064086914,-110.93114471435547,65.10368347167969,-26.838153839111328,17.569860458374023,0.0
307,-1.922607421875,-2.829345703125,-4.9599609375,488.0,-459.0,285.0,-28.007471084594727,18.608219146728516,0.0,120.2547607421875,-110.9661865234375,65.12544250488281,-26.821752548217773,17.55337142944336,0.0
312,-1.930908203125,-2.8232421875,-4.95751953125,506.0,-468.0,275.0,-27.952943801879883,18.698667526245117,0.0,120.29338836669922,-111.00191497802734,65.14643859863281,-26.803049087524414,17.53775978088379,0.0
317,-1.920654296875,-2.824951171875,-4.95849609375,497.0,-490.0,275.0,-27.979806900024414,18.601078033447266,0.0,120.33132934570312,-111.03932189941406,65.16743469238281,-26.785503387451172,17.51883316040039,0.0
322,-1.923828125,-2.826904296875,-4.954833984375,523.0,-463.0,272.0,-28.006345748901367,18.636428833007812,0.0,120.37125396728516,-111.07466888427734,65.18819427490234,-26.766450881958008,17.502574920654297,0.0
327,-1.9267578125,-2.82275390625,-4.9560546875,503.0,-497.0,291.0,-27.961645126342773,18.665874481201172,0.0,120.40965270996094,-111.11260986328125,65.21041107177734,-26.74819564819336,17.484249114990234,0.0
332,-1.927490234375,-2.82763671875,-4.952392578125,495.0,-462.0,302.0,-28.016740798950195,18.674802780151367,0.0,120.44744110107422,-111.14788055419922,65.23346710205078,-26.7314510345459,17.468727111816406,0.0
337,-1.92724609375,-2.82470703125,-4.959228515625,502.0,-474.0,309.0,-27.96407127380371,18.658935546875,0.0,120.48576354980469,-111.18406677246094,65.2570571899414,-26.713333129882812,17.45203971862793,0.0
342,-1.927734375,-2.825927734375,-4.955810546875,485.0,-457.0,325.0,-27.987754821777344,18.6705379486084,0.0,120.52278900146484,-111.21895599365234,65.28186798095703,-26.69688606262207,17.43682098388672,0.0
347,-1.924072265625,-2.822509765625,-4.965576171875,494.0,-455.0,293.0,-27.924362182617188,18.61687660217285,0.0,120.56050109863281,-111.25369262695312,65.30423736572266,-26.678773880004883,17.42090606689453,0.0
352,-1.92529296875,-2.827392578125,-4.95703125,510.0,-458.0,287.0,-27.99892807006836,18.643096923828125,0.0,120.59943389892578,-111.28865814208984,65.3261489868164,-26.660633087158203,17.405176162719727,0.0
357,-1.92431640625,-2.8271484375,-4.96240234375,495.0,-475.0,308.0,-27.976106643676758,18.620485305786133,0.0,120.63722229003906,-111.32492065429688,65.34966278076172,-26.643295288085938,17.387828826904297,0.0
362,-1.923095703125,-2.8232421875,-4.954345703125,513.0,-461.0,306.0,-27.978782653808594,18.63663101196289,0.0,120.67638397216797,-111.36011505126953,65.3730239868164,-26.624656677246094,17.371807098388672,0.0
367,-1.919921875,-2.827392578125,-4.960693359375,508.0,-482.0,309.0,-27.992351531982422,18.58501625061035,0.0,120.71516418457031,-111.39691162109375,65.39661407470703,-26.606626510620117,17.353452682495117,0.0
372,-1.92041015625,-2.822509765625,-4.953369140625,484.0,-454.0,305.0,-27.98103141784668,18.61608123779297,0.0,120.75211334228516,-111.43156433105469,65.4198989868164,-26.59025764465332,17.337711334228516,0.0
377,-1.921630859375,-2.82177734375,-4.951171875,513.0,-492.0,284.0,-27.982051849365234,18.634010314941406,0.0,120.79127502441406,-111.46912384033203,65.44158172607422,-26.57172393798828,17.319379806518555,0.0
382,-1.925537109375,-2.8212890625,-4.959716796875,496.0,-477.0,315.0,-27.936079025268555,18.64738655090332,0.0,120.82913970947266,-111.50553894042969,65.46562957763672,-26.55384635925293,17.30241584777832,0.0
387,-1.922119140625,-2.82275390625,-4.956298828125,506.0,-493.0,297.0,-27.968124389648438,18.623394012451172,0.0,120.86776733398438,-111.54317474365234,65.4883041381836,-26.53569984436035,17.283931732177734,0.0
393,-1.91943359375,-2.827880859375,-4.9560546875,505.0,-493.0,290.0,-28.016565322875977,18.59210205078125,0.0,120.90631866455078,-111.580810546875,65.51044464111328,-26.518335342407227,17.26506233215332,0.0
398,-1.92333984375,-2.82373046875,-4.96044921875,505.0,-478.0,316.0,-27.957096099853516,18.621973037719727,0.0,120.95257568359375,-111.62459564208984,65.53939056396484,-26.492589950561523,17.240623474121094,0.0
403,-1.9189453125,-2.82666015625,-4.95654296875,493.0,-476.0,295.0,-28.005062103271484,18.588245391845703,0.0,120.9902114868164,-111.66093444824219,65.5619125366211,-26.47614288330078,17.22320556640625,0.0
408,-1.924560546875,-2.8212890625,-4.954345703125,515.0,-482.0,317.0,-27.959991455078125,18.652788162231445,0.0,121.02952575683594,-111.6977310180664,65.58611297607422,-26.457435607910156,17.206247329711914,0.0
413,-1.923095703125,-2.82421875,-4.963623046875,521.0,-455.0,319.0,-27.94839859008789,18.610666275024414,0.0,121.06929779052734,-111.73246765136719,65.61046600341797,-26.438161849975586,17.190784454345703,0.0
418,-1.922607421875,-2.8291015625,-4.952880859375,520.0,-473.0,258.0,-28.03492546081543,18.62726402282715,0.0,121.10899353027344,-111.7685775756836,65.63015747070312,-26.420162200927734,17.1742000579834,0.0
423,-1.919677734375,-2.822998046875,-4.958740234375,507.0,-466.0,296.0,-27.963951110839844,18.594558715820312,0.0,121.14769744873047,-111.80415344238281,65.65275573730469,-26.402233123779297,17.157739639282227,0.0
428,-1.92578125,-2.82177734375,-4.957763671875,514.0,-482.0,298.0,-27.947906494140625,18.65401840209961,0.0,121.18693542480469,-111.84095001220703,65.67550659179688,-26.38360023498535,17.1408748626709,0.0
433,-1.92333984375,-2.82470703125,-4.9541015625,501.0,-484.0,332.0,-27.99172019958496,18.637271881103516,0.0,121.22518157958984,-111.87789916992188,65.70085144042969,-26.366554260253906,17.12367057800293,0.0
438,-1.92529296875,-2.825927734375,-4.955078125,495.0,-492.0,272.0,-27.994752883911133,18.65046501159668,0.0,121.26296997070312,-111.91545867919922,65.72161102294922,-26.350019454956055,17.106067657470703,0.0
443,-1.927490234375,-2.827392578125,-4.95751953125,500.0,-483.0,291.0,-27.99334144592285,18.66160774230957,0.0,121.30113983154297,-111.95233154296875,65.74382781982422,-26.33310317993164,17.089323043823242,0.0
448,-1.927978515625,-2.827392578125,-4.96044921875,525.0,-454.0,291.0,-27.980365753173828,18.65826416015625,0.0,121.34121704101562,-111.98698425292969,65.76604461669922,-26.314157485961914,17.074748992919922,0.0
453,-1.919921875,-2.826171875,-4.95849609375,491.0,-475.0,297.0,-27.99124526977539,18.59263801574707,0.0,121.37870025634766,-112.02324676513672,65.7887191772461,-26.297958374023438,17.057781219482422,0.0
458,-1.919921875,-2.8271484375,-4.96484375,514.0,-514.0,295.0,-27.973031997680664,18.5744571685791,0.0,121.41793823242188,-112.06248474121094,65.81124114990234,-26.279813766479492,17.037689208984375,0.0
463,-1.9248046875,-2.824462890625,-4.9638671875,505.0,-463.0,284.0,-27.94668197631836,18.62505340576172,0.0,121.45648956298828,-112.09783172607422,65.83292388916016,-26.262065887451172,17.022138595581055,0.0
468,-1.92236328125,-2.8291015625,-4.9599609375,523.0,-455.0,302.0,-28.005815505981445,18.606386184692383,0.0,121.49641418457031,-112.132568359375,65.8559799194336,-26.243715286254883,17.00698471069336,0.0
473,-1.926513671875,-2.826171875,-4.953125,505.0,-482.0,277.0,-28.002962112426758,18.666271209716797,0.0,121.53496551513672,-112.16936492919922,65.87712860107422,-26.226726531982422,16.990530014038086,0.0
478,-1.923095703125,-2.823486328125,-4.958740234375,516.0,-446.0,288.0,-27.96254539489746,18.624650955200195,0.0,121.57435607910156,-112.20340728759766,65.89911651611328,-26.208452224731445,16.9763240814209,0.0
483,-1.9228515625,-2.82421875,-4.95556640625,509.0,-462.0,313.0,-27.9823055267334,18.629732131958008,0.0,121.61321258544922,-112.23867797851562,65.92301177978516,-26.190982818603516,16.960979461669922,0.0
488,-1.92333984375,-2.826904296875,-4.955810546875,489.0,-471.0,306.0,-28.003067016601562,18.629446029663086,0.0,121.65054321289062,-112.2746353149414,65.94637298583984,-26.1752986907959,16.94497299194336,0.0
493,-1.92333984375,-2.822021484375,-4.958251953125,500.0,-473.0,288.0,-27.95186996459961,18.63034439086914,0.0,121.68871307373047,-112.31074523925781,65.9683609008789,-26.158203125,16.928855895996094,0.0
498,-1.924560546875,-2.823486328125,-4.955078125,508.0,-481.0,287.0,-27.975418090820312,18.647541046142578,0.0,121.72749328613281,-112.34746551513672,65.99027252197266,-26.14080810546875,16.912363052368164,0.0
503,-1.92431640625,-2.82275390625,-4.955810546875,538.0,-465.0,286.0,-27.96660804748535,18.64450454711914,0.0,121.76856231689453,-112.38296508789062,66.0121078491211,-26.121084213256836,16.897077560424805,0.0
508,-1.924072265625,-2.8212890625,-4.95947265625,506.0,-492.0,298.0,-27.939456939697266,18.634824752807617,0.0,121.80718994140625,-112.42052459716797,66.03485870361328,-26.103530883789062,16.87966537475586,0.0
513,-1.92919921875,-2.8251953125,-4.954345703125,507.0,-481.0,271.0,-27.985322952270508,18.68872833251953,0.0,121.84589385986328,-112.45724487304688,66.0555419921875,-26.086462020874023,16.863739013671875,0.0
518,-1.92822265625,-2.822998046875,-4.954345703125,513.0,-477.0,283.0,-27.96843719482422,18.68324089050293,0.0,121.88505554199219,-112.49365997314453,66.0771484375,-26.068784713745117,16.848081588745117,0.0
523,-1.92626953125,-2.8232421875,-4.95703125,515.0,-472.0,295.0,-27.962478637695312,18.658153533935547,0.0,121.92436981201172,-112.52969360351562,66.09967041015625,-26.050931930541992,16.83254623413086,0.0
529,-1.9248046875,-2.822265625,-4.962646484375,510.0,-476.0,300.0,-27.93329620361328,18.631576538085938,0.0,121.96330261230469,-112.56603240966797,66.12257385253906,-26.033180236816406,16.816442489624023,0.0
534,-1.92236328125,-2.82666015625,-4.962890625,498.0,-466.0,297.0,-27.973125457763672,18.602333068847656,0.0,122.00891876220703,-112.60871887207031,66.1497802734375,-26.009336471557617,16.793807983398438,0.0
539,-1.9208984375,-2.8251953125,-4.956787109375,509.0,-477.0,285.0,-27.988582611083984,18.607423782348633,0.0,122.04777526855469,-112.64513397216797,66.17153930664062,-25.992460250854492,16.777544021606445,0.0
544,-1.924072265625,-2.82373046875,-4.96484375,500.0,-477.0,302.0,-27.937654495239258,18.61697769165039,0.0,122.08594512939453,-112.68154907226562,66.19459533691406,-25.975746154785156,16.761423110961914,0.0
549,-1.925537109375,-2.82666015625,-4.956298828125,505.0,-468.0,281.0,-27.99542999267578,18.64833641052246,0.0,122.12449645996094,-112.71727752685547,66.21604919433594,-25.95931053161621,16.746355056762695,0.0
554,-1.92578125,-2.8251953125,-4.951416015625,495.0,-463.0,307.0,-28.00305938720703,18.665660858154297,0.0,122.16228485107422,-112.75262451171875,66.23948669433594,-25.943740844726562,16.731874465942383,0.0
559,-1.9208984375,-2.82666015625,-4.95947265625,496.0,-489.0,304.0,-27.98970603942871,18.5981388092041,0.0,122.20014953613281,-112.78995513916016,66.2626953125,-25.927976608276367,16.714733123779297,0.0
564,-1.9248046875,-2.824462890625,-4.959716796875,507.0,-476.0,289.0,-27.963932037353516,18.636011123657227,0.0,122.23885345458984,-112.8262939453125,66.28475952148438,-25.911134719848633,16.699024200439453,0.0
569,-1.926513671875,-2.823486328125,-4.960205078125,500.0,-492.0,320.0,-27.950939178466797,18.651592254638672,0.0,122.27702331542969,-112.86385345458984,66.30918884277344,-25.894723892211914,16.68230438232422,0.0
574,-1.923095703125,-2.82861328125,-4.962646484375,504.0,-467.0,301.0,-27.989356994628906,18.60664176940918,0.0,122.31549835205078,-112.89950561523438,66.33216857910156,-25.878446578979492,16.667051315307617,0.0
579,-1.92822265625,-2.823486328125,-4.953857421875,504.0,-474.0,294.0,-27.974573135375977,18.68379783630371,0.0,122.35397338867188,-112.9356918334961,66.3546142578125,-25.862049102783203,16.652099609375,0.0
584,-1.92724609375,-2.824462890625,-4.953857421875,515.0,-459.0,286.0,-27.984363555908203,18.67351722717285,0.0,122.3932876586914,-112.97073364257812,66.37644958496094,-25.84495735168457,16.638200759887695,0.0
589,-1.92041015625,-2.829345703125,-4.958984375,494.0,-492.0,290.0,-28.01508331298828,18.590986251831055,0.0,122.43099975585938,-113.00829315185547,66.39859008789062,-25.82980728149414,16.620981216430664,0.0
594,-1.925048828125,-2.82470703125,-4.956787109375,530.0,-463.0,301.0,-27.9777774810791,18.645586013793945,0.0,122.4714584350586,-113.04364013671875,66.42156982421875,-25.811580657958984,16.606563568115234,0.0
599,-1.92236328125,-2.8251953125,-4.95947265625,506.0,-501.0,317.0,-27.975038528442383,18.61354637145996,0.0,122.51008605957031,-113.0818862915039,66.44577026367188,-25.795196533203125,16.58897590637207,0.0
604,-1.918701171875,-2.83203125,-4.950439453125,514.0,-487.0,289.0,-28.0760555267334,18.59404182434082,0.0,122.54932403564453,-113.11906433105469,66.46783447265625,-25.779260635375977,16.572309494018555,0.0
609,-1.927490234375,-2.82421875,-4.953369140625,500.0,-486.0,277.0,-27.98394775390625,18.677379608154297,0.0,122.58749389648438,-113.15616607666016,66.48898315429688,-25.763490676879883,16.556602478027344,0.0
614,-1.92626953125,-2.821044921875,-4.9541015625,516.0,-478.0,278.0,-27.95619010925293,18.669219970703125,0.0,122.62688446044922,-113.19265747070312,66.51020812988281,-25.74626922607422,16.54145622253418,0.0
619,-1.91943359375,-2.825927734375,-4.96044921875,501.0,-478.0,268.0,-27.981849670410156,18.58345603942871,0.0,122.66513061523438,-113.2291488647461,66.5306625366211,-25.730484008789062,16.525495529174805,0.0
624,-1.921630859375,-2.82275390625,-4.956787109375,514.0,-464.0,311.0,-27.966880798339844,18.617700576782227,0.0,122.7043685913086,-113.26457214355469,66.55440521240234,-25.713603973388672,16.510976791381836,0.0
629,-1.92724609375,-2.82177734375,-4.959228515625,510.0,-457.0,285.0,-27.939453125,18.663347244262695,0.0,122.74330139160156,-113.2994613647461,66.57616424560547,-25.69680404663086,16.497465133666992,0.0
634,-1.922607421875,-2.82470703125,-4.957275390625,503.0,-466.0,320.0,-27.979686737060547,18.62228012084961,0.0,122.78170013427734,-113.33503723144531,66.60059356689453,-25.680973052978516,16.482894897460938,0.0
639,-1.927001953125,-2.8212890625,-4.955078125,515.0,-477.0,290.0,-27.9529972076416,18.672870635986328,0.0,122.82101440429688,-113.37145233154297,66.62273406982422,-25.664012908935547,16.468015670776367,0.0
644,-1.928466796875,-2.821533203125,-4.9560546875,515.0,-475.0,265.0,-27.948619842529297,18.683124542236328,0.0,122.8603286743164,-113.40771484375,66.64295959472656,-25.64706039428711,16.453418731689453,0.0
649,-1.92236328125,-2.825927734375,-4.953857421875,492.0,-462.0,302.0,-28.00457763671875,18.627267837524414,0.0,122.89788818359375,-113.44298553466797,66.666015625,-25.63243293762207,16.439302444458008,0.0
654,-1.923095703125,-2.821533203125,-4.9541015625,517.0,-482.0,300.0,-27.965429306030273,18.639850616455078,0.0,122.9373550415039,-113.47978210449219,66.68891906738281,-25.615570068359375,16.4238224029541,0.0
659,-1.9228515625,-2.821044921875,-4.9541015625,523.0,-491.0,300.0,-27.961715698242188,18.638381958007812,0.0,122.97727966308594,-113.51726531982422,66.71182250976562,-25.598268508911133,16.407691955566406,0.0
665,-1.9248046875,-2.823974609375,-4.9580078125,503.0,-469.0,296.0,-27.966936111450195,18.641260147094727,0.0,123.01567840576172,-113.55307006835938,66.73442077636719,-25.582582473754883,16.39330291748047,0.0
670,-1.921630859375,-2.8251953125,-4.955078125,503.0,-474.0,310.0,-27.994518280029297,18.618539810180664,0.0,123.06175231933594,-113.59648895263672,66.7628173828125,-25.559635162353516,16.37122917175293,0.0
675,-1.927490234375,-2.82763671875,-4.952392578125,509.0,-471.0,327.0,-28.016740798950195,18.674802780151367,0.0,123.1006088256836,-113.6324462890625,66.78778076171875,-25.544157028198242,16.357187271118164,0.0
680,-1.922119140625,-2.823974609375,-4.95849609375,528.0,-474.0,294.0,-27.96923828125,18.61575698852539,0.0,123.14091491699219,-113.66863250732422,66.81022644042969,-25.52683448791504,16.342397689819336,0.0
685,-1.9248046875,-2.825927734375,-4.9541015625,498.0,-488.0,287.0,-27.999610900878906,18.648643493652344,0.0,123.1789321899414,-113.70588684082031,66.83213806152344,-25.51211929321289,16.326892852783203,0.0
690,-1.925537109375,-2.823974609375,-4.944580078125,510.0,-477.0,280.0,-28.021692276000977,18.683414459228516,0.0,123.21786499023438,-113.74230194091797,66.853515625,-25.49673080444336,16.31258773803711,0.0
695,-1.92236328125,-2.82177734375,-4.960693359375,527.0,-471.0,307.0,-27.941240310668945,18.615459442138672,0.0,123.25809478759766,-113.77825927734375,66.876953125,-25.479352951049805,16.298145294189453,0.0
700,-1.927978515625,-2.826171875,-4.953125,506.0,-485.0,307.0,-28.00058937072754,18.679479598999023,0.0,123.29672241210938,-113.8152847290039,66.900390625,-25.464168548583984,16.283266067504883,0.0
705,-1.923095703125,-2.824951171875,-4.951416015625,501.0,-498.0,288.0,-28.00535774230957,18.641799926757812,0.0,123.33496856689453,-113.85330200195312,66.92237854003906,-25.44944190979004,16.267101287841797,0.0
710,-1.92333984375,-2.8310546875,-4.950927734375,506.0,-468.0,294.0,-28.05829620361328,18.636079788208008,0.0,123.37359619140625,-113.88903045654297,66.94482421875,-25.434852600097656,16.25320816040039,0.0
715,-1.92822265625,-2.828369140625,-4.957275390625,503.0,-490.0,298.0,-28.001371383666992,18.667381286621094,0.0,123.41199493408203,-113.92643737792969,66.96757507324219,-25.420005798339844,16.237966537475586,0.0
720,-1.922607421875,-2.824951171875,-4.95849609375,511.0,-468.0,294.0,-27.97665786743164,18.618690490722656,0.0,123.45100402832031,-113.96216583251953,66.99002075195312,-25.404367446899414,16.223997116088867,0.0
725,-1.921142578125,-2.82421875,-4.9619140625,517.0,-484.0,294.0,-27.958646774291992,18.59756851196289,0.0,123.49047088623047,-113.99911499023438,67.01246643066406,-25.388158798217773,16.208663940429688,0.0
730,-1.926513671875,-2.822998046875,-4.962646484375,496.0,-486.0,312.0,-27.936695098876953,18.6458740234375,0.0,123.52833557128906,-114.03621673583984,67.03628540039062,-25.373394012451172,16.193660736083984,0.0
735,-1.92138671875,-2.8271484375,-4.955078125,510.0,-480.0,281.0,-28.011327743530273,18.6133975982666,0.0,123.56726837158203,-114.07286071777344,67.0577392578125,-25.358274459838867,16.178869247436523,0.0
740,-1.921630859375,-2.82470703125,-4.962646484375,537.0,-479.0,287.0,-27.95891761779785,18.599306106567383,0.0,123.60826110839844,-114.10942840576172,67.07965087890625,-25.340688705444336,16.164073944091797,0.0
745,-1.923828125,-2.823974609375,-4.946044921875,495.0,-452.0,305.0,-28.018356323242188,18.664098739624023,0.0,123.64604949951172,-114.14392852783203,67.10293579101562,-25.32686996459961,16.151941299438477,0.0
750,-1.927734375,-2.822509765625,-4.957275390625,522.0,-487.0,307.0,-27.952938079833984,18.67181396484375,0.0,123.68589782714844,-114.18110656738281,67.12637329101562,-25.31046485900879,16.137248992919922,0.0
755,-1.92431640625,-2.823486328125,-4.9560546875,506.0,-495.0,309.0,-27.97174835205078,18.642757415771484,0.0,123.72452545166016,-114.2188949584961,67.14996337890625,-25.295490264892578,16.121740341186523,0.0
760,-1.928955078125,-2.822998046875,-4.9619140625,503.0,-467.0,273.0,-27.93579864501953,18.6698055267334,0.0,123.76292419433594,-114.25454711914062,67.17080688476562,-25.280471801757812,16.108640670776367,0.0
765,-1.923828125,-2.82861328125,-4.955322265625,533.0,-494.0,292.0,-28.01866912841797,18.6325626373291,0.0,123.8036117553711,-114.2922592163086,67.19309997558594,-25.263948440551758,16.093204498291016,0.0
770,-1.923583984375,-2.825439453125,-4.95751953125,493.0,-483.0,299.0,-27.983247756958008,18.62933921813965,0.0,123.84124755859375,-114.32913208007812,67.21592712402344,-25.250202178955078,16.07862663269043,0.0
775,-1.927490234375,-2.825927734375,-4.9560546875,509.0,-450.0,287.0,-27.987133026123047,18.667692184448242,0.0,123.8801040649414,-114.36347961425781,67.23783874511719,-25.23531150817871,16.066925048828125,0.0
780,-1.92138671875,-2.828125,-4.957275390625,512.0,-493.0,312.0,-28.010374069213867,18.606130599975586,0.0,123.919189453125,-114.40111541748047,67.26165771484375,-25.220439910888672,16.05146026611328,0.0
785,-1.923095703125,-2.82470703125,-4.957763671875,492.0,-491.0,273.0,-27.976865768432617,18.625394821166992,0.0,123.95674896240234,-114.4385986328125,67.28250122070312,-25.206836700439453,16.036367416381836,0.0
790,-1.92724609375,-2.8212890625,-4.958251953125,510.0,-470.0,298.0,-27.939407348632812,18.666667938232422,0.0,123.99568176269531,-114.47447967529297,67.30525207519531,-25.191587448120117,16.023271560668945,0.0
795,-1.92138671875,-2.826171875,-4.95556640625,497.0,-469.0,294.0,-28.001087188720703,18.61357879638672,0.0,124.03362274169922,-114.51028442382812,67.32769775390625,-25.17789649963379,16.00983238220215,0.0
801,-1.921630859375,-2.82470703125,-4.955322265625,527.0,-469.0,300.0,-27.989397048950195,18.618629455566406,0.0,124.0738525390625,-114.54608917236328,67.35060119628906,-25.1618709564209,15.996476173400879,0.0
806,-1.92724609375,-2.822998046875,-4.96044921875,500.0,-459.0,279.0,-27.944639205932617,18.658281326293945,0.0,124.1196517944336,-114.588134765625,67.37615966796875,-25.140052795410156,15.977356910705566,0.0
811,-1.924560546875,-2.8232421875,-4.954833984375,514.0,-454.0,306.0,-27.974382400512695,18.6485538482666,0.0,124.15888977050781,-114.62278747558594,67.39952087402344,-25.125102996826172,15.965568542480469,0.0
816,-1.92138671875,-2.82763671875,-4.95068359375,500.0,-472.0,300.0,-28.033756256103516,18.6242618560791,0.0,124.19705963134766,-114.65882110595703,67.42242431640625,-25.111759185791016,15.952239036560059,0.0
821,-1.926513671875,-2.823974609375,-4.953857421875,521.0,-490.0,312.0,-27.9814453125,18.667648315429688,0.0,124.23683166503906,-114.69622802734375,67.44624328613281,-25.09642219543457,15.93795108795166,0.0
826,-1.92724609375,-2.822265625,-4.9619140625,516.0,-477.0,325.0,-27.932401657104492,18.65550994873047,0.0,124.2762222290039,-114.7326431274414,67.47105407714844,-25.081104278564453,15.924593925476074,0.0
831,-1.921142578125,-2.824951171875,-4.959228515625,502.0,-475.0,295.0,-27.975971221923828,18.60354995727539,0.0,124.31454467773438,-114.76890563964844,67.49357604980469,-25.067262649536133,15.910994529724121,0.0
836,-1.924072265625,-2.825927734375,-4.958251953125,493.0,-470.0,304.0,-27.98351287841797,18.631072998046875,0.0,124.35218048095703,-114.8047866821289,67.51678466796875,-25.0542049407959,15.898046493530273,0.0
841,-1.922607421875,-2.822998046875,-4.9541015625,519.0,-479.0,298.0,-27.97853660583496,18.633237838745117,0.0,124.39179992675781,-114.84135437011719,67.53953552246094,-25.039175033569336,15.88447380065918,0.0
846,-1.924072265625,-2.82373046875,-4.9580078125,500.0,-492.0,297.0,-27.966066360473633,18.63502311706543,0.0,124.42996978759766,-114.87891387939453,67.56221008300781,-25.025529861450195,15.869976043701172,0.0
851,-1.923828125,-2.8271484375,-4.955322265625,517.0,-515.0,308.0,-28.006362915039062,18.6347713470459,0.0,124.46943664550781,-114.91822814941406,67.58572387695312,-25.01097297668457,15.853787422180176,0.0
856,-1.921142578125,-2.82763671875,-4.95703125,503.0,-464.0,314.0,-28.0076847076416,18.605308532714844,0.0,124.5078353881836,-114.95365142822266,67.60969543457031,-24.997533798217773,15.84128475189209,0.0
861,-1.92431640625,-2.826416015625,-4.95751953125,508.0,-512.0,286.0,-27.99026870727539,18.63447380065918,0.0,124.54661560058594,-114.99273681640625,67.63153076171875,-24.983612060546875,15.825424194335938,0.0
866,-1.926025390625,-2.825439453125,-4.95556640625,496.0,-492.0,299.0,-27.9874324798584,18.65651512145996,0.0,124.58448028564453,-115.0302963256836,67.65435791015625,-24.970619201660156,15.811322212219238,0.0
871,-1.92041015625,-2.8271484375,-4.958984375,513.0,-488.0,284.0,-27.996627807617188,18.594289779663086,0.0,124.62364196777344,-115.06755065917969,67.67604064941406,-24.956453323364258,15.797066688537598,0.0
876,-1.925048828125,-2.8251953125,-4.957275390625,503.0,-479.0,276.0,-27.979846954345703,18.643558502197266,0.0,124.66204071044922,-115.10411834716797,67.69711303710938,-24.942955017089844,15.78394603729248,0.0
881,-1.92138671875,-2.82666015625,-4.95654296875,496.0,-484.0,271.0,-28.001121520996094,18.610267639160156,0.0,124.69990539550781,-115.14106750488281,67.7177963256836,-24.930200576782227,15.770220756530762,0.0
886,-1.925537109375,-2.822998046875,-4.958984375,490.0,-461.0,299.0,-27.9534854888916,18.646751403808594,0.0,124.73731231689453,-115.17626190185547,67.7406234741211,-24.917551040649414,15.758581161499023,0.0
891,-1.923583984375,-2.824462890625,-4.961669921875,509.0,-430.0,292.0,-27.957778930664062,18.61985206604004,0.0,124.77616882324219,-115.2090835571289,67.7629165649414,-24.903535842895508,15.749104499816895,0.0
896,-1.919189453125,-2.822509765625,-4.956298828125,500.0,-501.0,305.0,-27.97079849243164,18.597328186035156,0.0,124.81433868408203,-115.24732971191406,67.78620147705078,-24.890356063842773,15.734086036682129,0.0
901,-1.924560546875,-2.82177734375,-4.950439453125,512.0,-491.0,293.0,-27.980361938476562,18.66239356994629,0.0,124.85342407226562,-115.2848129272461,67.8085708618164,-24.876386642456055,15.720407485961914,0.0
906,-1.926513671875,-2.8232421875,-4.9521484375,491.0,-498.0,303.0,-27.98240089416504,18.67327880859375,0.0,124.89090728759766,-115.32283020019531,67.83170318603516,-24.864070892333984,15.70633602142334,0.0
911,-1.9208984375,-2.8291015625,-4.95849609375,535.0,-491.0,300.0,-28.014280319213867,18.597042083740234,0.0,124.93174743652344,-115.36031341552734,67.85460662841797,-24.84871482849121,15.692238807678223,0.0
916,-1.930419921875,-2.825439453125,-4.960693359375,482.0,-477.0,310.0,-27.95900535583496,18.68255043029785,0.0,124.96854400634766,-115.396728515625,67.8782730102539,-24.836990356445312,15.679938316345215,0.0
921,-1.923583984375,-2.822021484375,-4.957763671875,478.0,-512.0,279.0,-27.953506469726562,18.63383674621582,0.0,125.00503540039062,-115.4358139038086,67.89957427978516,-24.825557708740234,15.664639472961426,0.0
926,-1.92236328125,-2.823486328125,-4.953369140625,527.0,-479.0,293.0,-27.986087799072266,18.63223648071289,0.0,125.0452651977539,-115.47238159179688,67.92194366455078,-24.810705184936523,15.65189266204834,0.0
931,-1.92138671875,-2.821044921875,-4.951416015625,500.0,-464.0,285.0,-27.97526741027832,18.632265090942383,0.0,125.08343505859375,-115.50780487060547,67.9437026977539,-24.797870635986328,15.640327453613281,0.0
937,-1.919677734375,-2.82080078125,-4.95458984375,496.0,-468.0,299.0,-27.962751388549805,18.608816146850586,0.0,125.12129974365234,-115.54353332519531,67.9665298461914,-24.785282135009766,15.62830924987793,0.0
942,-1.921630859375,-2.824951171875,-4.958740234375,506.0,-466.0,322.0,-27.977216720581055,18.609241485595703,0.0,125.16764831542969,-115.58621978759766,67.99602508544922,-24.764490127563477,15.609485626220703,0.0
947,-1.92724609375,-2.824462890625,-4.965087890625,494.0,-482.0,316.0,-27.937681198120117,18.64381980895996,0.0,125.20536041259766,-115.62301635742188,68.02014923095703,-24.752063751220703,15.596875190734863,0.0
952,-1.92919921875,-2.823486328125,-4.959716796875,518.0,-485.0,290.0,-27.948631286621094,18.677082061767578,0.0,125.24490356445312,-115.66004180908203,68.04228973388672,-24.737947463989258,15.584343910217285,0.0
957,-1.926513671875,-2.82275390625,-4.960205078125,503.0,-459.0,288.0,-27.94478416442871,18.652694702148438,0.0,125.2833023071289,-115.69508361816406,68.06427764892578,-24.724990844726562,15.573634147644043,0.0
962,-1.923095703125,-2.822265625,-4.9482421875,506.0,-478.0,308.0,-27.996000289916992,18.654251098632812,0.0,125.32192993164062,-115.73157501220703,68.0877914428711,-24.71225357055664,15.561527252197266,0.0
967,-1.92138671875,-2.8271484375,-4.9541015625,510.0,-478.0,303.0,-28.015398025512695,18.61597442626953,0.0,125.3608627319336,-115.76806640625,68.11092376708984,-24.69940757751465,15.549163818359375,0.0
972,-1.925537109375,-2.827392578125,-4.96044921875,499.0,-483.0,298.0,-27.984310150146484,18.63627052307129,0.0,125.39895629882812,-115.80493927001953,68.13367462158203,-24.687196731567383,15.53662395477295,0.0
977,-1.918701171875,-2.82421875,-4.95068359375,496.0,-470.0,278.0,-28.009363174438477,18.60517120361328,0.0,125.43682098388672,-115.8408203125,68.15489959716797,-24.675447463989258,15.524872779846191,0.0
982,-1.9208984375,-2.82666015625,-4.952880859375,517.0,-494.0,289.0,-28.017173767089844,18.61552619934082,0.0,125.47628784179688,-115.87853240966797,68.17696380615234,-24.662206649780273,15.511425018310547,0.0
987,-1.924560546875,-2.826171875,-4.95361328125,500.0,-499.0,301.0,-28.004091262817383,18.64736557006836,0.0,125.51445770263672,-115.9166259765625,68.19994354248047,-24.65019989013672,15.497900009155273,0.0
992,-1.926513671875,-2.82373046875,-4.96044921875,501.0,-477.0,303.0,-27.951974868774414,18.65057945251465,0.0,125.55270385742188,-115.95304107666016,68.22307586669922,-24.637754440307617,15.48612117767334,0.0
997,-1.9228515625,-2.824462890625,-4.9619140625,514.0,-475.0,292.0,-27.957944869995117,18.612606048583984,0.0,125.5919418334961,-115.98930358886719,68.24536895751953,-24.624414443969727,15.474242210388184,0.0
1002,-1.922607421875,-2.827880859375,-4.949462890625,504.0,-490.0,290.0,-28.038925170898438,18.638134002685547,0.0,125.63041687011719,-116.0267105102539,68.26750946044922,-24.612506866455078,15.461466789245605,0.0
1007,-1.926025390625,-2.8271484375,-4.965087890625,481.0,-475.0,294.0,-27.962190628051758,18.628793716430664,0.0,125.6671371459961,-116.06297302246094,68.28995513916016,-24.601791381835938,15.449806213378906,0.0
1012,-1.922607421875,-2.824462890625,-4.95751953125,522.0,-481.0,288.0,-27.97661781311035,18.62200355529785,0.0,125.70698547363281,-116.09969329833984,68.31194305419922,-24.58811378479004,15.437681198120117,0.0
1017,-1.926025390625,-2.82861328125,-4.95556640625,505.0,-451.0,282.0,-28.014095306396484,18.6517276763916,0.0,125.74553680419922,-116.13411712646484,68.3334732055664,-24.576065063476562,15.428101539611816,0.0
1022,-1.924072265625,-2.822021484375,-4.952880859375,515.0,-469.0,278.0,-27.973037719726562,18.651155471801758,0.0,125.78485107421875,-116.169921875,68.35469818115234,-24.56298828125,15.417181015014648,0.0
1027,-1.925537109375,-2.82275390625,-4.95166015625,499.0,-457.0,298.0,-27.981910705566406,18.6664981842041,0.0,125.82294464111328,-116.2048110961914,68.37744903564453,-24.55124282836914,15.407323837280273,0.0
1032,-1.928466796875,-2.825927734375,-4.95849609375,494.0,-495.0,305.0,-27.97539520263672,18.670034408569336,0.0,125.86065673828125,-116.24259948730469,68.4007339477539,-24.539867401123047,15.394644737243652,0.0
1037,-1.923828125,-2.82568359375,-4.962158203125,508.0,-480.0,320.0,-27.965608596801758,18.618928909301758,0.0,125.8994369506836,-116.27924346923828,68.42516326904297,-24.52739715576172,15.38276481628418,0.0
1042,-1.92333984375,-2.822021484375,-4.956298828125,499.0,-494.0,310.0,-27.95999526977539,18.635507583618164,0.0,125.93753051757812,-116.31695556640625,68.4488296508789,-24.515613555908203,15.369996070861816,0.0
1047,-1.92919921875,-2.82666015625,-4.96240234375,521.0,-474.0,326.0,-27.964128494262695,18.665199279785156,0.0,125.97730255126953,-116.35314178466797,68.47371673583984,-24.50223731994629,15.359020233154297,0.0
1052,-1.92626953125,-2.829833984375,-4.953857421875,495.0,-486.0,325.0,-28.03107452392578,18.65660285949707,0.0,126.01509094238281,-116.39024353027344,68.49852752685547,-24.491392135620117,15.3471097946167,0.0
1057,-1.921142578125,-2.825439453125,-4.9609375,500.0,-473.0,298.0,-27.972963333129883,18.598310470581055,0.0,126.05326080322266,-116.42635345458984,68.52127838134766,-24.479764938354492,15.33579158782959,0.0
1062,-1.924072265625,-2.8271484375,-4.957275390625,525.0,-498.0,317.0,-27.997833251953125,18.631813049316406,0.0,126.09333801269531,-116.46437072753906,68.54547882080078,-24.466474533081055,15.322875022888184,0.0
1067,-1.923095703125,-2.826171875,-4.96142578125,485.0,-459.0,321.0,-27.973936080932617,18.613527297973633,0.0,126.13036346435547,-116.4994125366211,68.56998443603516,-24.456090927124023,15.31283187866211,0.0
1073,-1.921875,-2.823974609375,-4.958251953125,493.0,-484.0,314.0,-27.97064781188965,18.614198684692383,0.0,126.16799926757812,-116.53636169433594,68.59395599365234,-24.445110321044922,15.300933837890625,0.0
1078,-1.927001953125,-2.8271484375,-4.95654296875,512.0,-486.0,286.0,-27.996145248413086,18.660158157348633,0.0,126.21489715576172,-116.58087921142578,68.62015533447266,-24.42523193359375,15.281978607177734,0.0
1083,-1.919921875,-2.825439453125,-4.963134765625,503.0,-477.0,286.0,-27.965787887573242,18.581518173217773,0.0,126.2532958984375,-116.61729431152344,68.6419906616211,-24.413671493530273,15.270580291748047,0.0
1088,-1.9208984375,-2.8291015625,-4.95849609375,486.0,-472.0,286.0,-28.014280319213867,18.597042083740234,0.0,126.29039764404297,-116.65332794189453,68.66382598876953,-24.403804779052734,15.259721755981445,0.0
1093,-1.925048828125,-2.819091796875,-4.96337890625,505.0,-469.0,302.0,-27.903188705444336,18.636606216430664,0.0,126.32894897460938,-116.68913269042969,68.68688201904297,-24.391698837280273,15.249427795410156,0.0
1098,-1.92138671875,-2.82568359375,-4.960693359375,503.0,-491.0,285.0,-27.975635528564453,18.600788116455078,0.0,126.36734771728516,-116.72661590576172,68.7086410522461,-24.380334854125977,15.237236976623535,0.0
1103,-1.9228515625,-2.82470703125,-4.960205078125,502.0,-456.0,301.0,-27.96710205078125,18.616748809814453,0.0,126.40567016601562,-116.76142883300781,68.73162078857422,-24.36902618408203,15.227869033813477,0.0
1108,-1.924560546875,-2.820556640625,-4.9560546875,512.0,-478.0,290.0,-27.946720123291016,18.649370193481445,0.0,126.44475555419922,-116.79792022705078,68.7537612915039,-24.35685157775879,15.217107772827148,0.0
1113,-1.923583984375,-2.823974609375,-4.950439453125,483.0,-469.0,297.0,-28.000425338745117,18.6502628326416,0.0,126.48162841796875,-116.83372497558594,68.77643585205078,-24.347322463989258,15.207076072692871,0.0
1118,-1.923828125,-2.826416015625,-4.954833984375,509.0,-461.0,281.0,-28.002243041992188,18.637165069580078,0.0,126.5204849243164,-116.8689193725586,68.79788970947266,-24.335866928100586,15.197589874267578,0.0
1123,-1.926513671875,-2.821533203125,-4.9501953125,490.0,-472.0,284.0,-27.976160049438477,18.681034088134766,0.0,126.55789184570312,-116.90495300292969,68.81957244873047,-24.325702667236328,15.187627792358398,0.0
1128,-1.92578125,-2.8212890625,-4.96728515625,517.0,-500.0,332.0,-27.90427017211914,18.62959098815918,0.0,126.59735870361328,-116.94312286376953,68.84491729736328,-24.312997817993164,15.175200462341309,0.0
1133,-1.920654296875,-2.828369140625,-4.961669921875,495.0,-503.0,298.0,-27.99530601501465,18.587581634521484,0.0,126.63514709472656,-116.98152160644531,68.86766815185547,-24.30268669128418,15.162290573120117,0.0
1138,-1.92431640625,-2.82177734375,-4.95703125,508.0,-491.0,301.0,-27.953319549560547,18.64274787902832,0.0,126.6739273071289,-117.01900482177734,68.8906478881836,-24.291118621826172,15.150755882263184,0.0
1143,-1.921630859375,-2.824462890625,-4.951171875,507.0,-470.0,305.0,-28.004640579223633,18.629961013793945,0.0,126.71263122558594,-117.05488586425781,68.91393280029297,-24.280052185058594,15.140767097473145,0.0
1148,-1.92236328125,-2.825927734375,-4.956298828125,503.0,-449.0,301.0,-27.99440574645996,18.620820999145508,0.0,126.75102996826172,-117.08915710449219,68.9369125366211,-24.269256591796875,15.132340431213379,0.0
1153,-1.93115234375,-2.826416015625,-4.96044921875,515.0,-482.0,288.0,-27.9670352935791,18.68832015991211,0.0,126.79034423828125,-117.1259536743164,68.95890045166016,-24.257394790649414,15.121936798095703,0.0
1158,-1.92138671875,-2.8232421875,-4.957763671875,507.0,-464.0,304.0,-27.96731185913086,18.612184524536133,0.0,126.82904815673828,-117.161376953125,68.98210906982422,-24.246191024780273,15.112380027770996,0.0
1163,-1.9228515625,-2.822265625,-4.965576171875,487.0,-474.0,294.0,-27.924274444580078,18.606245040893555,0.0,126.86622619628906,-117.19756317138672,69.00455474853516,-24.23623275756836,15.102057456970215,0.0
1168,-1.92236328125,-2.822509765625,-4.96044921875,501.0,-476.0,301.0,-27.94841194152832,18.61500358581543,0.0,126.90447235107422,-117.23390197753906,69.02753448486328,-24.225427627563477,15.091689109802246,0.0
1173,-1.917236328125,-2.830810546875,-4.96044921875,512.0,-489.0,296.0,-28.026395797729492,18.556318283081055,0.0,126.94355773925781,-117.27123260498047,69.05013275146484,-24.21440315246582,15.079950332641602,0.0
1178,-1.928466796875,-2.825439453125,-4.961181640625,517.0,-475.0,287.0,-27.960132598876953,18.663667678833008,0.0,126.98302459716797,-117.3074951171875,69.0720443725586,-24.20256233215332,15.070108413696289,0.0
1183,-1.92626953125,-2.8291015625,-4.95263671875,511.0,-479.0,296.0,-28.030010223388672,18.66093635559082,0.0,127.02203369140625,-117.34406280517578,69.09464263916016,-24.191736221313477,15.059983253479004,0.0
1188,-1.919921875,-2.82177734375,-4.95458984375,514.0,-473.0,324.0,-27.97057342529297,18.60955047607422,0.0,127.06127166748047,-117.38017272949219,69.11937713623047,-24.180295944213867,15.049979209899902,0.0
1193,-1.92822265625,-2.822998046875,-4.956787109375,501.0,-485.0,306.0,-27.958282470703125,18.676774978637695,0.0,127.09951782226562,-117.41719818115234,69.14273834228516,-24.1697998046875,15.039596557617188,0.0
1198,-1.9248046875,-2.828369140625,-4.953125,489.0,-484.0,278.0,-28.024194717407227,18.64754295349121,0.0,127.13684844970703,-117.45414733886719,69.1639633178711,-24.160734176635742,15.029120445251465,0.0
1203,-1.922119140625,-2.83056640625,-4.96044921875,511.0,-474.0,288.0,-28.0164737701416,18.600698471069336,0.0,127.17585754394531,-117.4903335571289,69.18595123291016,-24.149978637695312,15.0191068649292,0.0
1209,-1.924560546875,-2.825927734375,-4.958740234375,505.0,-471.0,276.0,-27.980693817138672,18.634185791015625,0.0,127.21440887451172,-117.52629089355469,69.20702362060547,-24.139463424682617,15.009605407714844,0.0
1214,-1.9228515625,-2.822998046875,-4.95361328125,524.0,-496.0,307.0,-27.980175018310547,18.63673210144043,0.0,127.26240539550781,-117.57172393798828,69.23514556884766,-24.119680404663086,14.990819931030273,0.0
1219,-1.923095703125,-2.827880859375,-4.95556640625,520.0,-481.0,304.0,-28.012683868408203,18.626419067382812,0.0,127.3021011352539,-117.60844421386719,69.25835418701172,-24.108489990234375,14.980718612670898,0.0
1224,-1.9287109375,-2.828369140625,-4.959228515625,509.0,-466.0,313.0,-27.992456436157227,18.666616439819336,0.0,127.34095764160156,-117.6440200805664,69.2822494506836,-24.098033905029297,14.972087860107422,0.0
1229,-1.924560546875,-2.82568359375,-4.959228515625,512.0,-489.0,320.0,-27.97661018371582,18.633262634277344,0.0,127.38004302978516,-117.68135070800781,69.30667877197266,-24.0872802734375,14.961504936218262,0.0
1234,-1.927734375,-2.827880859375,-4.9638671875,525.0,-486.0,296.0,-27.970653533935547,18.646303176879883,0.0,127.42012023925781,-117.71845245361328,69.32927703857422,-24.075542449951172,14.951290130615234,0.0
1239,-1.92578125,-2.82275390625,-4.951171875,512.0,-486.0,299.0,-27.983549118041992,18.669994354248047,0.0,127.4592056274414,-117.75555419921875,69.35210418701172,-24.064937591552734,14.941289901733398,0.0
1244,-1.924072265625,-2.824462890625,-4.951416015625,523.0,-487.0,299.0,-27.999670028686523,18.651348114013672,0.0,127.49913024902344,-117.79273223876953,69.37493133544922,-24.053661346435547,14.931121826171875,0.0
1249,-1.926025390625,-2.824462890625,-4.956298828125,494.0,-456.0,275.0,-27.976179122924805,18.656049728393555,0.0,127.5368423461914,-117.82754516601562,69.39592742919922,-24.044462203979492,14.923380851745605,0.0
1254,-1.927001953125,-2.827880859375,-4.957275390625,510.0,-451.0,270.0,-27.99924659729004,18.657115936279297,0.0,127.57577514648438,-117.86196899414062,69.41653442382812,-24.03425407409668,14.916053771972656,0.0
1259,-1.92138671875,-2.82177734375,-4.954833984375,512.0,-471.0,297.0,-27.967193603515625,18.62212562561035,0.0,127.61486053466797,-117.8979263305664,69.439208984375,-24.023706436157227,14.906983375549316,0.0
1264,-1.92578125,-2.82666015625,-4.955078125,525.0,-461.0,310.0,-28.000118255615234,18.653764724731445,0.0,127.65493774414062,-117.93312072753906,69.46287536621094,-24.012454986572266,14.898935317993164,0.0
1269,-1.9228515625,-2.82568359375,-4.95361328125,514.0,-451.0,294.0,-28.00275230407715,18.6326847076416,0.0,127.69417572021484,-117.96754455566406,69.48532104492188,-24.00210952758789,14.891524314880371,0.0
1274,-1.925048828125,-2.822998046875,-4.9580078125,516.0,-496.0,304.0,-27.95833396911621,18.64493179321289,0.0,127.73356628417969,-118.00540924072266,69.50852966308594,-23.9913387298584,14.880815505981445,0.0
1279,-1.92138671875,-2.824462890625,-4.95361328125,494.0,-483.0,299.0,-27.99485969543457,18.621307373046875,0.0,127.77127838134766,-118.04228210449219,69.53135681152344,-23.9825439453125,14.870973587036133,0.0
1284,-1.92626953125,-2.822998046875,-4.949462890625,496.0,-461.0,299.0,-27.99193000793457,18.678560256958008,0.0,127.80914306640625,-118.07747650146484,69.55418395996094,-23.97361183166504,14.863251686096191,0.0
1289,-1.925537109375,-2.82275390625,-4.955078125,495.0,-492.0,306.0,-27.967681884765625,18.657451629638672,0.0,127.84693145751953,-118.11503601074219,69.57754516601562,-23.964618682861328,14.853057861328125,0.0
1294,-1.923095703125,-2.824951171875,-4.958251953125,484.0,-468.0,310.0,-27.976884841918945,18.623737335205078,0.0,127.88388061523438,-118.15076446533203,69.60121154785156,-23.956560134887695,14.844489097595215,0.0
1299,-1.92333984375,-2.82958984375,-4.96044921875,505.0,-490.0,320.0,-28.006305694580078,18.6131649017334,0.0,127.92243194580078,-118.18817138671875,69.62564086914062,-23.94715118408203,14.834213256835938,0.0
1304,-1.925048828125,-2.82421875,-4.95654296875,503.0,-469.0,308.0,-27.974689483642578,18.6469669342041,0.0,127.96083068847656,-118.2239761352539,69.64915466308594,-23.937707901000977,14.825817108154297,0.0
1309,-1.92724609375,-2.824951171875,-4.957763671875,503.0,-462.0,295.0,-27.972211837768555,18.662443161010742,0.0,127.99922943115234,-118.25924682617188,69.67167663574219,-23.928287506103516,14.818097114562988,0.0
1314,-1.927734375,-2.825439453125,-4.95751953125,497.0,-468.0,285.0,-27.976539611816406,18.666751861572266,0.0,128.03717041015625,-118.29497528076172,69.69343566894531,-23.91939353942871,14.809982299804688,0.0
1319,-1.922607421875,-2.82568359375,-4.948974609375,524.0,-499.0,301.0,-28.02248764038086,18.642744064331055,0.0,128.07716369628906,-118.33306884765625,69.71641540527344,-23.908815383911133,14.7993803024292,0.0
1324,-1.92529296875,-2.81884765625,-4.953125,506.0,-466.0,296.0,-27.943347930908203,18.666309356689453,0.0,128.11578369140625,-118.36864471435547,69.739013671875,-23.899091720581055,14.791498184204102,0.0
1329,-1.92236328125,-2.823486328125,-4.959228515625,526.0,-491.0,310.0,-27.961694717407227,18.616758346557617,0.0,128.1559295654297,-118.4061279296875,69.76268005371094,-23.888023376464844,14.781401634216309,0.0
1334,-1.92529296875,-2.8251953125,-4.9580078125,503.0,-495.0,297.0,-27.976404190063477,18.64382553100586,0.0,128.19432067871094,-118.44391632080078,69.78535461425781,-23.878856658935547,14.771241188049316,0.0
1339,-1.925048828125,-2.82421875,-4.958251953125,521.0,-475.0,295.0,-27.96757698059082,18.64244842529297,0.0,128.2340850830078,-118.48017883300781,69.80787658691406,-23.868305206298828,14.762635231018066,0.0
1345,-1.9267578125,-2.824462890625,-4.95458984375,510.0,-497.0,307.0,-27.982105255126953,18.66717529296875,0.0,128.27301025390625,-118.51811981201172,69.83131408691406,-23.858739852905273,14.752574920654297,0.0
1350,-1.9267578125,-2.83056640625,-4.95458984375,496.0,-467.0,296.0,-28.033382415771484,18.657962799072266,0.0,128.31845092773438,-118.56089782714844,69.85842895507812,-23.843202590942383,14.737768173217773,0.0
1355,-1.92333984375,-2.821533203125,-4.9609375,490.0,-486.0,297.0,-27.936601638793945,18.623985290527344,0.0,128.35585021972656,-118.5979995727539,69.881103515625,-23.835039138793945,14.72844123840332,0.0
1360,-1.927978515625,-2.821533203125,-4.966552734375,532.0,-469.0,308.0,-27.90582275390625,18.65094566345215,0.0,128.39645385742188,-118.63380432128906,69.90461730957031,-23.82350730895996,14.720635414123535,0.0
1365,-1.927978515625,-2.829345703125,-4.95849609375,496.0,-463.0,303.0,-28.0048885345459,18.660480499267578,0.0,128.43431091308594,-118.66915130615234,69.92774963378906,-23.815462112426758,14.713384628295898,0.0
1370,-1.924560546875,-2.826171875,-4.956298828125,504.0,-484.0,301.0,-27.99290657043457,18.640268325805664,0.0,128.4727783203125,-118.70610046386719,69.95072937011719,-23.806758880615234,14.704427719116211,0.0
1375,-1.9248046875,-2.82666015625,-4.9560546875,501.0,-483.0,296.0,-27.997631072998047,18.642377853393555,0.0,128.51101684570312,-118.74297332763672,69.97332763671875,-23.79835319519043,14.695602416992188,0.0
1380,-1.927734375,-2.82470703125,-4.954833984375,490.0,-497.0,313.0,-27.98155975341797,18.674964904785156,0.0,128.5484161376953,-118.78091430664062,69.99722290039062,-23.79070281982422,14.68598461151123,0.0
1385,-1.927001953125,-2.82373046875,-4.9560546875,513.0,-470.0,297.0,-27.969459533691406,18.66660499572754,0.0,128.5875701904297,-118.8167953491211,70.0198974609375,-23.7812557220459,14.678400039672852,0.0
1390,-1.92724609375,-2.822998046875,-4.95703125,513.0,-493.0,296.0,-27.958847045898438,18.66732406616211,0.0,128.62672424316406,-118.85443115234375,70.04249572753906,-23.771778106689453,14.669108390808105,0.0
1395,-1.927978515625,-2.822265625,-4.9619140625,499.0,-488.0,295.0,-27.93122100830078,18.662109375,0.0,128.66481018066406,-118.89168548583984,70.06501770019531,-23.76321029663086,14.66020393371582,0.0
1400,-1.920654296875,-2.830078125,-4.960693359375,492.0,-488.0,296.0,-28.013721466064453,18.587587356567383,0.0,128.70236206054688,-118.92893981933594,70.08761596679688,-23.75579071044922,14.650816917419434,0.0
1405,-1.925048828125,-2.826416015625,-4.955078125,496.0,-467.0,294.0,-27.999252319335938,18.64752769470215,0.0,128.74021911621094,-118.96459197998047,70.11006164550781,-23.747995376586914,14.643486976623535,0.0
1410,-1.9248046875,-2.820556640625,-4.957275390625,500.0,-486.0,299.0,-27.941247940063477,18.64834213256836,0.0,128.77838134765625,-119.00169372558594,70.13288879394531,-23.73952293395996,14.634754180908203,0.0
1415,-1.9208984375,-2.824462890625,-4.952392578125,514.0,-454.0,270.0,-28.000736236572266,18.620126724243164,0.0,128.81761169433594,-119.03634643554688,70.15349578857422,-23.730445861816406,14.628289222717285,0.0
1420,-1.9248046875,-2.82470703125,-4.96337890625,523.0,-449.0,312.0,-27.950761795043945,18.625974655151367,0.0,128.85752868652344,-119.07061767578125,70.17731475830078,-23.720378875732422,14.622269630432129,0.0
1425,-1.927978515625,-2.822021484375,-4.95556640625,485.0,-480.0,298.0,-27.95554542541504,18.679279327392578,0.0,128.89454650878906,-119.10726165771484,70.20006561279297,-23.713272094726562,14.614295959472656,0.0
1430,-1.921142578125,-2.826171875,-4.957275390625,493.0,-514.0,290.0,-27.994359970092773,18.60686683654785,0.0,128.9321746826172,-119.14649963378906,70.22220611572266,-23.705860137939453,14.603273391723633,0.0
1435,-1.923828125,-2.828125,-4.9560546875,505.0,-484.0,301.0,-28.011516571044922,18.631364822387695,0.0,128.97071838378906,-119.1834487915039,70.24518585205078,-23.697690963745117,14.594754219055176,0.0
1440,-1.926513671875,-2.819580078125,-4.95751953125,503.0,-487.0,284.0,-27.929262161254883,18.66457748413086,0.0,129.0091094970703,-119.22062683105469,70.2668685913086,-23.68913459777832,14.586280822753906,0.0
1445,-1.926513671875,-2.826171875,-4.958740234375,494.0,-474.0,309.0,-27.979589462280273,18.65142059326172,0.0,129.04681396484375,-119.2568130493164,70.29045867919922,-23.681652069091797,14.578740119934082,0.0
1450,-1.9248046875,-2.82470703125,-4.953125,499.0,-460.0,300.0,-27.993417739868164,18.65306854248047,0.0,129.08489990234375,-119.29193115234375,70.31336212158203,-23.673917770385742,14.572306632995605,0.0
1455,-1.921630859375,-2.824462890625,-4.95458984375,509.0,-470.0,290.0,-27.99039649963379,18.62093162536621,0.0,129.12374877929688,-119.32781219482422,70.33550262451172,-23.66543960571289,14.564916610717773,0.0
1460,-1.92333984375,-2.822998046875,-4.951416015625,523.0,-486.0,302.0,-27.98853874206543,18.646949768066406,0.0,129.16366577148438,-119.36491394042969,70.35855865478516,-23.655927658081055,14.556528091430664,0.0
1465,-1.924072265625,-2.82763671875,-4.95849609375,507.0,-484.0,293.0,-27.99685287475586,18.62785530090332,0.0,129.20236206054688,-119.40186309814453,70.38092803955078,-23.647733688354492,14.548198699951172,0.0
1470,-1.9306640625,-2.822509765625,-4.953369140625,504.0,-462.0,315.0,-27.96443748474121,18.708580017089844,0.0,129.24082946777344,-119.4371337890625,70.40497589111328,-23.639577865600586,14.542139053344727,0.0
1475,-1.926025390625,-2.822021484375,-4.9560546875,519.0,-459.0,275.0,-27.95667266845703,18.660375595092773,0.0,129.2804412841797,-119.47217559814453,70.42597198486328,-23.63027000427246,14.535995483398438,0.0
1481,-1.926513671875,-2.823486328125,-4.9609375,502.0,-482.0,310.0,-27.947895050048828,18.649656295776367,0.0,129.31875610351562,-119.50897216796875,70.44963836669922,-23.622236251831055,14.528059005737305,0.0
1486,-1.924072265625,-2.82373046875,-4.956787109375,524.0,-487.0,272.0,-27.971147537231445,18.63825035095215,0.0,129.36676025390625,-119.55358123779297,70.47455596923828,-23.604873657226562,14.512398719787598,0.0
1491,-1.923583984375,-2.822998046875,-4.956787109375,487.0,-460.0,289.0,-27.96578025817871,18.63494873046875,0.0,129.4039306640625,-119.58869934082031,70.49662017822266,-23.598323822021484,14.50623607635498,0.0
1496,-1.927978515625,-2.82763671875,-4.951904296875,507.0,-480.0,277.0,-28.017982482910156,18.680496215820312,0.0,129.442626953125,-119.6253433227539,70.51776885986328,-23.590648651123047,14.498899459838867,0.0
1501,-1.92333984375,-2.825927734375,-4.958740234375,502.0,-478.0,310.0,-27.982664108276367,18.623180389404297,0.0,129.48094177246094,-119.66183471679688,70.54143524169922,-23.583141326904297,14.491349220275879,0.0
1506,-1.9208984375,-2.822998046875,-4.95703125,494.0,-475.0,295.0,-27.969097137451172,18.610082626342773,0.0,129.51864624023438,-119.6980972290039,70.56395721435547,-23.57617950439453,14.483969688415527,0.0
1511,-1.9228515625,-2.8251953125,-4.95849609375,497.0,-462.0,280.0,-27.978315353393555,18.620525360107422,0.0,129.55657958984375,-119.73336791992188,70.58533477783203,-23.56908416748047,14.477683067321777,0.0
1516,-1.927001953125,-2.82421875,-4.955322265625,498.0,-486.0,292.0,-27.97661018371582,18.66780662536621,0.0,129.59458923339844,-119.77046966552734,70.60762786865234,-23.561931610107422,14.469931602478027,0.0
1521,-1.923583984375,-2.826416015625,-4.95556640625,522.0,-486.0,315.0,-27.999588012695312,18.633028030395508,0.0,129.63442993164062,-119.80757141113281,70.63167572021484,-23.553152084350586,14.461976051330566,0.0
1526,-1.927734375,-2.822265625,-4.956298828125,513.0,-457.0,286.0,-27.954946517944336,18.67477035522461,0.0,129.673583984375,-119.84246063232422,70.65351104736328,-23.544788360595703,14.45654582977295,0.0
1531,-1.924560546875,-2.82470703125,-4.955810546875,512.0,-499.0,307.0,-27.982629776000977,18.64376449584961,0.0,129.71266174316406,-119.88055419921875,70.67694854736328,-23.536731719970703,14.447737693786621,0.0
1536,-1.919677734375,-2.8232421875,-4.957275390625,516.0,-495.0,332.0,-27.97210121154785,18.59805679321289,0.0,129.75204467773438,-119.91834259033203,70.7022933959961,-23.528337478637695,14.438961029052734,0.0
1541,-1.9228515625,-2.8251953125,-4.958740234375,510.0,-458.0,300.0,-27.977298736572266,18.61988067626953,0.0,129.7909698486328,-119.95330810546875,70.7251968383789,-23.520475387573242,14.433185577392578,0.0
1546,-1.924072265625,-2.827880859375,-4.955322265625,503.0,-471.0,294.0,-28.012121200561523,18.635868072509766,0.0,129.82936096191406,-119.98926544189453,70.74764251708984,-23.5134220123291,14.426558494567871,0.0
1551,-1.92529296875,-2.82080078125,-4.955810546875,501.0,-465.0,282.0,-27.948606491088867,18.6562557220459,0.0,129.8675994873047,-120.02476501464844,70.76917266845703,-23.506113052368164,14.420557975769043,0.0
1556,-1.92626953125,-2.82177734375,-4.95751953125,506.0,-483.0,292.0,-27.94813346862793,18.659067153930664,0.0,129.90621948242188,-120.06163787841797,70.79146575927734,-23.498456954956055,14.413238525390625,0.0
1561,-1.924560546875,-2.8212890625,-4.9560546875,532.0,-466.0,303.0,-27.952880859375,18.64826774597168,0.0,129.9468231201172,-120.09721374511719,70.8145980834961,-23.4888973236084,14.4071683883667,0.0
1566,-1.922119140625,-2.82470703125,-4.9501953125,492.0,-465.0,299.0,-28.00997543334961,18.636581420898438,0.0,129.984375,-120.1327133178711,70.8374252319336,-23.48281478881836,14.40112018585205,0.0
1571,-1.92626953125,-2.823486328125,-4.95947265625,506.0,-484.0,310.0,-27.954376220703125,18.65132713317871,0.0,130.0229949951172,-120.16966247558594,70.86109161376953,-23.47531509399414,14.393759727478027,0.0
1576,-1.91845703125,-2.82177734375,-4.95654296875,498.0,-478.0,290.0,-27.96480369567871,18.591175079345703,0.0,130.06100463867188,-120.2061538696289,70.88323211669922,-23.468528747558594,14.386474609375,0.0
1581,-1.91943359375,-2.82861328125,-4.95263671875,500.0,-497.0,283.0,-28.036975860595703,18.60000991821289,0.0,130.0991668701172,-120.24409484863281,70.90483856201172,-23.462120056152344,14.377845764160156,0.0
1586,-1.924560546875,-2.824951171875,-4.95361328125,510.0,-475.0,277.0,-27.993831634521484,18.649206161499023,0.0,130.13809204101562,-120.28035736083984,70.92598724365234,-23.45468521118164,14.371269226074219,0.0
1591,-1.925048828125,-2.823974609375,-4.96142578125,498.0,-490.0,296.0,-27.95233154296875,18.634431838989258,0.0,130.1761016845703,-120.31776428222656,70.9485855102539,-23.447908401489258,14.363484382629395,0.0
1596,-1.921630859375,-2.8271484375,-4.958984375,490.0,-465.0,310.0,-27.994659423828125,18.605295181274414,0.0,130.2135009765625,-120.35326385498047,70.97225189208984,-23.442062377929688,14.357434272766113,0.0
1601,-1.926025390625,-2.827880859375,-4.9609375,500.0,-496.0,310.0,-27.9855899810791,18.63864517211914,0.0,130.2516632080078,-120.39112854003906,70.99591827392578,-23.435420989990234,14.34929084777832,0.0
1606,-1.9228515625,-2.825439453125,-4.957763671875,514.0,-491.0,303.0,-27.983413696289062,18.62209129333496,0.0,130.2908935546875,-120.4286117553711,71.01905059814453,-23.427734375,14.34145450592041,0.0
1611,-1.92578125,-2.828125,-4.95703125,514.0,-467.0,308.0,-28.004291534423828,18.646394729614258,0.0,130.3301239013672,-120.46426391601562,71.04256439208984,-23.420230865478516,14.33564567565918,0.0
1617,-1.921875,-2.82763671875,-4.94580078125,506.0,-489.0,308.0,-28.0533504486084,18.641572952270508,0.0,130.36874389648438,-120.50159454345703,71.06607818603516,-23.413707733154297,14.328163146972656,0.0
1622,-1.923828125,-2.82275390625,-4.958740234375,511.0,-496.0,285.0,-27.95520782470703,18.632356643676758,0.0,130.41555786132812,-120.54702758789062,71.0921859741211,-23.398502349853516,14.312687873840332,0.0
1627,-1.9228515625,-2.8232421875,-4.961181640625,517.0,-489.0,303.0,-27.950735092163086,18.61637306213379,0.0,130.45501708984375,-120.58435821533203,71.11531829833984,-23.390649795532227,14.305245399475098,0.0
1632,-1.923828125,-2.824951171875,-4.95654296875,492.0,-482.0,317.0,-27.982816696166992,18.634855270385742,0.0,130.49256896972656,-120.62115478515625,71.13951873779297,-23.384950637817383,14.298498153686523,0.0
1637,-1.92236328125,-2.8251953125,-4.955810546875,506.0,-475.0,324.0,-27.990285873413086,18.623212814331055,0.0,130.53118896484375,-120.65741729736328,71.16425323486328,-23.378267288208008,14.29223346710205,0.0
1642,-1.919677734375,-2.824462890625,-4.957275390625,519.0,-485.0,299.0,-27.98236083984375,18.596221923828125,0.0,130.57080078125,-120.69444274902344,71.18708038330078,-23.370574951171875,14.285055160522461,0.0
1647,-1.927001953125,-2.826416015625,-4.95361328125,507.0,-489.0,297.0,-28.00218963623047,18.66901206970215,0.0,130.6094970703125,-120.73177337646484,71.20975494384766,-23.36396598815918,14.278109550476074,0.0
1652,-1.9267578125,-2.826171875,-4.950439453125,501.0,-484.0,309.0,-28.013755798339844,18.675580978393555,0.0,130.64773559570312,-120.76872253417969,71.23334503173828,-23.35792350769043,14.271622657775879,0.0
1657,-1.927001953125,-2.819580078125,-4.955322265625,497.0,-483.0,297.0,-27.93760871887207,18.674800872802734,0.0,130.6856689453125,-120.80559539794922,71.25601959228516,-23.351688385009766,14.265236854553223,0.0
1662,-1.923095703125,-2.825439453125,-4.958984375,500.0,-468.0,299.0,-27.97793960571289,18.621070861816406,0.0,130.7238311767578,-120.84132385253906,71.27884674072266,-23.345531463623047,14.259649276733398,0.0
1667,-1.92431640625,-2.82470703125,-4.96484375,508.0,-453.0,294.0,-27.945463180541992,18.617712020874023,0.0,130.76260375976562,-120.87590026855469,71.3012924194336,-23.338573455810547,14.25520133972168,0.0
1672,-1.9228515625,-2.821533203125,-4.9599609375,526.0,-485.0,279.0,-27.94144630432129,18.622161865234375,0.0,130.80274963378906,-120.91292572021484,71.32259368896484,-23.330257415771484,14.248376846313477,0.0
1677,-1.921875,-2.822998046875,-4.95166015625,486.0,-461.0,285.0,-27.989891052246094,18.63308334350586,0.0,130.83984375,-120.9481201171875,71.34435272216797,-23.325349807739258,14.243480682373047,0.0
1682,-1.9228515625,-2.82275390625,-4.952880859375,500.0,-507.0,276.0,-27.981172561645508,18.639036178588867,0.0,130.8780059814453,-120.98682403564453,71.36542510986328,-23.3193416595459,14.235158920288086,0.0
1687,-1.9248046875,-2.82666015625,-4.954833984375,509.0,-495.0,298.0,-28.002714157104492,18.64560317993164,0.0,130.91685485839844,-121.02461242675781,71.38817596435547,-23.31282615661621,14.227835655212402,0.0
1692,-1.9248046875,-2.82177734375,-4.956787109375,513.0,-482.0,274.0,-27.95354652404785,18.647796630859375,0.0,130.9560089111328,-121.06140899658203,71.40909576416016,-23.30570411682129,14.221551895141602,0.0
1697,-1.927734375,-2.824462890625,-4.95947265625,514.0,-497.0,310.0,-27.960216522216797,18.66305923461914,0.0,130.9952392578125,-121.09934997558594,71.4327621459961,-23.298587799072266,14.214265823364258,0.0
1702,-1.927734375,-2.82421875,-4.957763671875,511.0,-486.0,304.0,-27.965269088745117,18.667945861816406,0.0,131.03424072265625,-121.1364517211914,71.45597076416016,-23.29176902770996,14.2078857421875,0.0
1707,-1.92138671875,-2.824462890625,-4.955810546875,513.0,-495.0,271.0,-27.985706329345703,18.615507125854492,0.0,131.07339477539062,-121.17424011230469,71.47665405273438,-23.28497314453125,14.200495719909668,0.0
1712,-1.9296875,-2.8251953125,-4.957763671875,508.0,-465.0,269.0,-27.970314025878906,18.6840763092041,0.0,131.11216735839844,-121.2097396850586,71.49718475341797,-23.278484344482422,14.19588851928711,0.0
1717,-1.925048828125,-2.824462890625,-4.96044921875,512.0,-483.0,269.0,-27.960493087768555,18.636276245117188,0.0,131.1512451171875,-121.24661254882812,71.51771545410156,-23.271657943725586,14.18960952758789,0.0
1722,-1.927001953125,-2.82470703125,-4.94921875,523.0,-467.0,298.0,-28.006132125854492,18.683231353759766,0.0,131.191162109375,-121.28226470947266,71.54046630859375,-23.264345169067383,14.184895515441895,0.0
1727,-1.93017578125,-2.82470703125,-4.955810546875,504.0,-466.0,313.0,-27.97354507446289,18.694387435913086,0.0,131.22962951660156,-121.31784057617188,71.56436157226562,-23.25828742980957,14.180355072021484,0.0
1732,-1.92529296875,-2.82421875,-4.9501953125,505.0,-467.0,311.0,-28.0007266998291,18.66596221923828,0.0,131.26817321777344,-121.3534927368164,71.58810424804688,-23.252368927001953,14.17556381225586,0.0
1737,-1.92236328125,-2.821044921875,-4.956298828125,507.0,-498.0,286.0,-27.953359603881836,18.6281681060791,0.0,131.30686950683594,-121.39151000976562,71.60993957519531,-23.246004104614258,14.16818618774414,0.0
1742,-1.9189453125,-2.820068359375,-4.957763671875,525.0,-471.0,304.0,-27.94455909729004,18.594926834106445,0.0,131.34693908691406,-121.4274673461914,71.63314819335938,-23.238245010375977,14.162668228149414,0.0
1747,-1.918701171875,-2.826171875,-4.95703125,530.0,-490.0,300.0,-27.999317169189453,18.585491180419922,0.0,131.38739013671875,-121.46487426757812,71.65605163574219,-23.23052215576172,14.155673027038574,0.0
1753,-1.92578125,-2.8251953125,-4.96142578125,526.0,-476.0,307.0,-27.961402893066406,18.639196395874023,0.0,131.4275360107422,-121.50121307373047,71.67948913574219,-23.222885131835938,14.150142669677734,0.0
1758,-1.92333984375,-2.8251953125,-4.955078125,506.0,-488.0,312.0,-27.991756439208984,18.633955001831055,0.0,131.47389221191406,-121.54591369628906,71.70806884765625,-23.209434509277344,14.136381149291992,0.0
1763,-1.921875,-2.826416015625,-4.954345703125,506.0,-489.0,305.0,-28.007434844970703,18.620838165283203,0.0,131.51251220703125,-121.58324432373047,71.73135375976562,-23.20384407043457,14.129937171936035,0.0
1768,-1.92578125,-2.82666015625,-4.95361328125,500.0,-491.0,293.0,-28.00621795654297,18.657636642456055,0.0,131.55067443847656,-121.6207275390625,71.75372314453125,-23.1987247467041,14.123624801635742,0.0
1773,-1.922607421875,-2.823486328125,-4.963134765625,523.0,-492.0,307.0,-27.94506072998047,18.608652114868164,0.0,131.59059143066406,-121.65828704833984,71.77716064453125,-23.191469192504883,14.116934776306152,0.0
1778,-1.92138671875,-2.826416015625,-4.94921875,492.0,-470.0,291.0,-28.029605865478516,18.629974365234375,0.0,131.62814331054688,-121.69416809082031,71.79937744140625,-23.187177658081055,14.112092018127441,0.0
1783,-1.928466796875,-2.826904296875,-4.9599609375,515.0,-471.0,290.0,-27.977506637573242,18.664690017700195,0.0,131.66744995117188,-121.7301254272461,71.82151794433594,-23.180805206298828,14.10743236541748,0.0
1788,-1.9248046875,-2.825439453125,-4.957763671875,489.0,-452.0,295.0,-27.980260848999023,18.639699935913086,0.0,131.70477294921875,-121.7646255493164,71.84403991699219,-23.17645263671875,14.104063987731934,0.0
1793,-1.9208984375,-2.82568359375,-4.959716796875,511.0,-490.0,316.0,-27.980487823486328,18.598960876464844,0.0,131.7437744140625,-121.80203247070312,71.8681640625,-23.170454025268555,14.097549438476562,0.0
1798,-1.924072265625,-2.826171875,-4.957763671875,491.0,-492.0,296.0,-27.98759651184082,18.631994247436523,0.0,131.78125,-121.83959197998047,71.89076232910156,-23.166048049926758,14.091142654418945,0.0
1803,-1.924560546875,-2.8212890625,-4.958984375,506.0,-486.0,327.0,-27.940698623657227,18.640518188476562,0.0,131.8198699951172,-121.87669372558594,71.91572570800781,-23.160205841064453,14.085282325744629,0.0
1808,-1.925537109375,-2.826416015625,-4.956787109375,511.0,-443.0,285.0,-27.99134635925293,18.64741325378418,0.0,131.85887145996094,-121.91050720214844,71.93748474121094,-23.15435791015625,14.082758903503418,0.0
1813,-1.922607421875,-2.822265625,-4.96728515625,511.0,-500.0,312.0,-27.917572021484375,18.599538803100586,0.0,131.8978729248047,-121.94867706298828,71.9613037109375,-23.14803695678711,14.075594902038574,0.0
1818,-1.921142578125,-2.82568359375,-4.960205078125,496.0,-483.0,288.0,-27.97806167602539,18.59987449645996,0.0,131.93572998046875,-121.98554992675781,71.98329162597656,-23.14329719543457,14.069761276245117,0.0
1823,-1.924560546875,-2.820068359375,-4.95751953125,494.0,-487.0,283.0,-27.936521530151367,18.646228790283203,0.0,131.9734344482422,-122.0227279663086,72.00489807128906,-23.13844871520996,14.063969612121582,0.0
1828,-1.92529296875,-2.824462890625,-4.958740234375,506.0,-460.0,282.0,-27.967205047607422,18.64299201965332,0.0,132.01205444335938,-122.05784606933594,72.02642822265625,-23.13292121887207,14.060232162475586,0.0
1833,-1.92138671875,-2.82568359375,-4.9560546875,506.0,-489.0,263.0,-27.994949340820312,18.613025665283203,0.0,132.05067443847656,-122.09517669677734,72.04650115966797,-23.12761116027832,14.054108619689941,0.0
1838,-1.92138671875,-2.82177734375,-4.962158203125,506.0,-460.0,306.0,-27.936725616455078,18.6027889251709,0.0,132.08929443359375,-122.13029479980469,72.06986236572266,-23.121931076049805,14.050146102905273,0.0
1843,-1.925537109375,-2.826416015625,-4.959228515625,507.0,-483.0,310.0,-27.981185913085938,18.640962600708008,0.0,132.12799072265625,-122.16716766357422,72.0935287475586,-23.116506576538086,14.044716835021973,0.0
1848,-1.9228515625,-2.821044921875,-4.956787109375,514.0,-483.0,296.0,-27.95054054260254,18.631282806396484,0.0,132.16722106933594,-122.20404052734375,72.11612701416016,-23.110370635986328,14.039249420166016,0.0
1853,-1.921142578125,-2.82666015625,-4.962158203125,514.0,-482.0,287.0,-27.978137969970703,18.59326171875,0.0,132.20645141601562,-122.24083709716797,72.1380386352539,-23.104454040527344,14.0336275100708,0.0
1858,-1.923095703125,-2.82373046875,-4.952880859375,531.0,-510.0,298.0,-27.988988876342773,18.639766693115234,0.0,132.24697875976562,-122.27976989746094,72.1607894897461,-23.09735107421875,14.026227951049805,0.0
1863,-1.92041015625,-2.824462890625,-4.958740234375,511.0,-492.0,288.0,-27.975082397460938,18.598966598510742,0.0,132.28598022460938,-122.31732940673828,72.18277740478516,-23.09170913696289,14.019956588745117,0.0
1868,-1.924072265625,-2.82421875,-4.957763671875,506.0,-467.0,292.0,-27.9711856842041,18.634933471679688,0.0,132.32460021972656,-122.35298156738281,72.20507049560547,-23.086448669433594,14.01585865020752,0.0
1873,-1.927734375,-2.825439453125,-4.96044921875,505.0,-476.0,287.0,-27.964359283447266,18.659006118774414,0.0,132.36314392089844,-122.38932037353516,72.22698211669922,-23.08124542236328,14.011260986328125,0.0
1878,-1.924560546875,-2.82861328125,-4.951416015625,507.0,-467.0,305.0,-28.03376579284668,18.64948844909668,0.0,132.40184020996094,-122.42497253417969,72.2502670288086,-23.076387405395508,14.007303237915039,0.0
1883,-1.926025390625,-2.822998046875,-4.9580078125,523.0,-487.0,326.0,-27.956758499145508,18.653736114501953,0.0,132.44175720214844,-122.46215057373047,72.27515411376953,-23.0698184967041,14.001876831054688,0.0
1889,-1.927978515625,-2.82421875,-4.957275390625,517.0,-491.0,290.0,-27.966903686523438,18.67144012451172,0.0,132.48121643066406,-122.4996337890625,72.29729461669922,-23.06380844116211,13.996294975280762,0.0
1894,-1.923583984375,-2.82421875,-4.953857421875,511.0,-508.0,284.0,-27.988237380981445,18.640853881835938,0.0,132.5280303955078,-122.5461654663086,72.32331085205078,-23.050777435302734,13.981634140014648,0.0
1899,-1.921142578125,-2.82080078125,-4.957763671875,519.0,-482.0,286.0,-27.94717788696289,18.613651275634766,0.0,132.56764221191406,-122.58296203613281,72.34514617919922,-23.044687271118164,13.976552963256836,0.0
1904,-1.9267578125,-2.824462890625,-4.954345703125,502.0,-495.0,284.0,-27.983121871948242,18.667821884155273,0.0,132.60595703125,-122.6207504272461,72.36682891845703,-23.0401611328125,13.970878601074219,0.0
1909,-1.91845703125,-2.8203125,-4.960693359375,523.0,-488.0,291.0,-27.935211181640625,18.582427978515625,0.0,132.6458740234375,-122.65800476074219,72.38904571533203,-23.03373908996582,13.965185165405273,0.0
1914,-1.924072265625,-2.825439453125,-4.95654296875,499.0,-492.0,303.0,-27.986526489257812,18.636322021484375,0.0,132.6839599609375,-122.69556427001953,72.41217803955078,-23.029518127441406,13.959583282470703,0.0
1919,-1.923828125,-2.825439453125,-4.953369140625,490.0,-481.0,289.0,-28.000137329101562,18.642507553100586,0.0,132.7213592529297,-122.73228454589844,72.43424224853516,-23.026090621948242,13.954887390136719,0.0
1924,-1.922119140625,-2.82373046875,-4.9580078125,510.0,-466.0,307.0,-27.969219207763672,18.617412567138672,0.0,132.76028442382812,-122.76786041259766,72.45767974853516,-23.020952224731445,13.951181411743164,0.0
1929,-1.928466796875,-2.82958984375,-4.95361328125,504.0,-491.0,299.0,-28.026479721069336,18.677425384521484,0.0,132.7987518310547,-122.80534362792969,72.48050689697266,-23.016681671142578,13.946002960205078,0.0
1934,-1.923583984375,-2.81982421875,-4.94970703125,502.0,-478.0,280.0,-27.968557357788086,18.658464431762695,0.0,132.83706665039062,-122.84183502197266,72.50188446044922,-23.012189865112305,13.9417085647583,0.0
1939,-1.92138671875,-2.822021484375,-4.955322265625,509.0,-475.0,304.0,-27.967212677001953,18.620468139648438,0.0,132.87591552734375,-122.87809753417969,72.52509307861328,-23.00718116760254,13.937403678894043,0.0
1944,-1.923583984375,-2.827392578125,-4.957763671875,510.0,-460.0,303.0,-27.998640060424805,18.625755310058594,0.0,132.9148406982422,-122.91321563720703,72.54822540283203,-23.002334594726562,13.934293746948242,0.0
1949,-1.925537109375,-2.829833984375,-4.954345703125,490.0,-478.0,297.0,-28.030227661132812,18.648710250854492,0.0,132.95223999023438,-122.94970703125,72.5708999633789,-22.99924087524414,13.929986953735352,0.0
1954,-1.923828125,-2.820556640625,-4.957763671875,501.0,-463.0,292.0,-27.940793991088867,18.638242721557617,0.0,132.990478515625,-122.98505401611328,72.59319305419922,-22.994720458984375,13.926767349243164,0.0
1959,-1.924560546875,-2.8251953125,-4.95947265625,519.0,-486.0,297.0,-27.971492767333984,18.63335418701172,0.0,133.03009033203125,-123.02215576171875,72.6158676147461,-22.989065170288086,13.921785354614258,0.0
1964,-1.92529296875,-2.825439453125,-4.961181640625,521.0,-473.0,306.0,-27.965255737304688,18.635074615478516,0.0,133.06985473632812,-123.05826568603516,72.63922882080078,-22.983245849609375,13.917825698852539,0.0
1969,-1.92236328125,-2.81884765625,-4.957763671875,496.0,-483.0,298.0,-27.92878532409668,18.627599716186523,0.0,133.1077117919922,-123.09513854980469,72.66197967529297,-22.97910499572754,13.913076400756836,0.0
1974,-1.92333984375,-2.8291015625,-4.958740234375,508.0,-467.0,316.0,-28.009321212768555,18.618406295776367,0.0,133.146484375,-123.13079071044922,72.68610382080078,-22.974620819091797,13.909502029418945,0.0
1979,-1.922119140625,-2.828125,-4.954833984375,515.0,-481.0,309.0,-28.019365310668945,18.619176864624023,0.0,133.185791015625,-123.16751098632812,72.7096939086914,-22.969696044921875,13.904888153076172,0.0
1984,-1.92041015625,-2.8212890625,-4.958251953125,485.0,-451.0,311.0,-27.950435638427734,18.605022430419922,0.0,133.22280883789062,-123.20193481445312,72.73343658447266,-22.966604232788086,13.90247631072998,0.0
1989,-1.92431640625,-2.8232421875,-4.95751953125,509.0,-477.0,294.0,-27.963600158691406,18.639251708984375,0.0,133.26165771484375,-123.23834991455078,72.7558822631836,-22.961795806884766,13.898333549499512,0.0
1994,-1.926025390625,-2.827392578125,-4.953857421875,506.0,-496.0,289.0,-28.01095962524414,18.6580867767334,0.0,133.30027770996094,-123.27621459960938,72.77794647216797,-22.95755958557129,13.892897605895996,0.0
1999,-1.9267578125,-2.825439453125,-4.962158203125,505.0,-509.0,299.0,-27.958833694458008,18.645692825317383,0.0,133.3388214111328,-123.31507110595703,72.80077362060547,-22.953067779541016,13.886423110961914,0.0
2004,-1.92626953125,-2.822021484375,-4.956298828125,504.0,-476.0,323.0,-27.955263137817383,18.661930084228516,0.0,133.37728881835938,-123.35140991210938,72.82543182373047,-22.948650360107422,13.882596015930176,0.0
2009,-1.92138671875,-2.828125,-4.955810546875,513.0,-485.0,305.0,-28.0164794921875,18.609994888305664,0.0,133.41644287109375,-123.38843536376953,72.84871673583984,-22.943984985351562,13.877755165100098,0.0
2014,-1.919677734375,-2.827880859375,-4.9580078125,492.0,-468.0,285.0,-28.00802993774414,18.589157104492188,0.0,133.45399475097656,-123.42416381835938,72.87047576904297,-22.94087791442871,13.8740873336792,0.0
2019,-1.928466796875,-2.82568359375,-4.962158203125,517.0,-472.0,290.0,-27.958126068115234,18.66071891784668,0.0,133.4934539794922,-123.46019744873047,72.89261627197266,-22.93555450439453,13.870616912841797,0.0
2025,-1.922119140625,-2.8232421875,-4.953857421875,501.0,-489.0,303.0,-27.98239517211914,18.62911033630371,0.0,133.5316925048828,-123.49752807617188,72.9157485961914,-22.9316349029541,13.86566162109375,0.0
2030,-1.92138671875,-2.82177734375,-4.952880859375,522.0,-467.0,295.0,-27.975326538085938,18.627286911010742,0.0,133.5795135498047,-123.5403060913086,72.9427719116211,-22.918277740478516,13.855399131774902,0.0
2035,-1.92529296875,-2.82275390625,-4.953125,496.0,-478.0,283.0,-27.976205825805664,18.660417556762695,0.0,133.61737060546875,-123.57679748535156,72.9643783569336,-22.91489601135254,13.851670265197754,0.0
2040,-1.925537109375,-2.82177734375,-4.957275390625,491.0,-440.0,298.0,-27.95033073425293,18.653108596801758,0.0,133.65484619140625,-123.61038208007812,72.98712921142578,-22.911731719970703,13.850790977478027,0.0
2045,-1.92236328125,-2.822509765625,-4.950439453125,500.0,-480.0,300.0,-27.990079879760742,18.641454696655273,0.0,133.69300842285156,-123.64702606201172,73.0100326538086,-22.908166885375977,13.846797943115234,0.0
2050,-1.923828125,-2.830322265625,-4.953125,498.0,-473.0,300.0,-28.042184829711914,18.635787963867188,0.0,133.73101806640625,-123.68313598632812,73.0329360961914,-22.905122756958008,13.843316078186035,0.0
2055,-1.92431640625,-2.82080078125,-4.956787109375,514.0,-478.0,291.0,-27.946121215820312,18.64486312866211,0.0,133.77024841308594,-123.7196273803711,73.0551528930664,-22.90022850036621,13.839532852172852,0.0
2060,-1.91943359375,-2.830078125,-4.949462890625,508.0,-483.0,300.0,-28.062538146972656,18.606172561645508,0.0,133.80902099609375,-123.75650024414062,73.07805633544922,-22.8966007232666,13.835126876831055,0.0
2065,-1.927490234375,-2.82177734375,-4.95751953125,492.0,-494.0,283.0,-27.9461612701416,18.67007064819336,0.0,133.84657287597656,-123.7942123413086,73.09966278076172,-22.893417358398438,13.830341339111328,0.0
2070,-1.92529296875,-2.81884765625,-4.963134765625,511.0,-479.0,324.0,-27.901756286621094,18.63981819152832,0.0,133.8855743408203,-123.83078002929688,73.12439727783203,-22.888507843017578,13.826513290405273,0.0
2075,-1.923828125,-2.826904296875,-4.954345703125,491.0,-453.0,318.0,-28.008380889892578,18.637718200683594,0.0,133.9230499267578,-123.8653564453125,73.14867401123047,-22.8858585357666,13.824661254882812,0.0
2080,-1.923583984375,-2.82568359375,-4.9560546875,495.0,-480.0,280.0,-27.99139976501465,18.632841110229492,0.0,133.96083068847656,-123.9020004272461,73.17005157470703,-22.882802963256836,13.820734977722168,0.0
2085,-1.924560546875,-2.826171875,-4.955078125,513.0,-481.0,309.0,-27.997989654541016,18.64349365234375,0.0,133.99998474121094,-123.938720703125,73.19364166259766,-22.878440856933594,13.816823959350586,0.0
2090,-1.923583984375,-2.8232421875,-4.952880859375,506.0,-479.0,291.0,-27.984094619750977,18.644908905029297,0.0,134.03860473632812,-123.97528839111328,73.21585845947266,-22.874536514282227,13.813094139099121,0.0
2095,-1.919921875,-2.825439453125,-4.95654296875,518.0,-485.0,281.0,-27.993228912353516,18.59889030456543,0.0,134.07814025878906,-124.01231384277344,73.23731231689453,-22.86980438232422,13.808616638183594,0.0
2100,-1.92529296875,-2.824951171875,-4.963134765625,474.0,-479.0,290.0,-27.953039169311523,18.630651473999023,0.0,134.11431884765625,-124.04888153076172,73.25945281982422,-22.868162155151367,13.804832458496094,0.0
2105,-1.925048828125,-2.82470703125,-4.962646484375,499.0,-474.0,302.0,-27.953411102294922,18.630107879638672,0.0,134.15240478515625,-124.08506774902344,73.28250885009766,-22.8646297454834,13.80144214630127,0.0
2110,-1.92333984375,-2.8251953125,-4.961669921875,508.0,-496.0,310.0,-27.964324951171875,18.61655044555664,0.0,134.19117736816406,-124.12293243408203,73.3061752319336,-22.860506057739258,13.796308517456055,0.0
2115,-1.92626953125,-2.82421875,-4.95849609375,519.0,-475.0,291.0,-27.964590072631836,18.652807235717773,0.0,134.2307891845703,-124.15919494628906,73.3283920288086,-22.855571746826172,13.793039321899414,0.0
2120,-1.9248046875,-2.826171875,-4.95556640625,504.0,-465.0,285.0,-27.995561599731445,18.6444034576416,0.0,134.26925659179688,-124.19469451904297,73.35015106201172,-22.852008819580078,13.790488243103027,0.0
2125,-1.92236328125,-2.826171875,-4.955810546875,499.0,-469.0,275.0,-27.998491287231445,18.621742248535156,0.0,134.30734252929688,-124.23049926757812,73.37114715576172,-22.848861694335938,13.787490844726562,0.0
2130,-1.924072265625,-2.826416015625,-4.955322265625,511.0,-471.0,280.0,-27.999814987182617,18.638076782226562,0.0,134.34634399414062,-124.2664566040039,73.39252471923828,-22.844829559326172,13.784466743469238,0.0
2135,-1.92431640625,-2.825439453125,-4.963134765625,485.0,-470.0,306.0,-27.95871353149414,18.62112045288086,0.0,134.38336181640625,-124.30233764648438,73.41588592529297,-22.842510223388672,13.781417846679688,0.0
2140,-1.924072265625,-2.82568359375,-4.949462890625,494.0,-487.0,296.0,-28.018077850341797,18.654672622680664,0.0,134.4210662841797,-124.33951568603516,73.43848419189453,-22.83991813659668,13.777321815490723,0.0
2145,-1.9248046875,-2.826904296875,-4.953125,486.0,-476.0,298.0,-28.011884689331055,18.64975357055664,0.0,134.45816040039062,-124.3758544921875,73.46123504638672,-22.837902069091797,13.774046897888184,0.0
2150,-1.92626953125,-2.829345703125,-4.951416015625,507.0,-455.0,306.0,-28.037151336669922,18.663795471191406,0.0,134.49685668945312,-124.41059112548828,73.4845962524414,-22.83447265625,13.772475242614746,0.0
2155,-1.93017578125,-2.825439453125,-4.954345703125,503.0,-479.0,301.0,-27.98579216003418,18.697160720825195,0.0,134.53524780273438,-124.44715881347656,73.50757598876953,-22.831016540527344,13.76931381225586,0.0
2161,-1.927490234375,-2.82568359375,-4.957275390625,514.0,-491.0,293.0,-27.98000144958496,18.66482925415039,0.0,134.57447814941406,-124.4846420288086,73.52994537353516,-22.826705932617188,13.765039443969727,0.0
2166,-1.9248046875,-2.823974609375,-4.959228515625,488.0,-463.0,300.0,-27.96185874938965,18.63803482055664,0.0,134.6191864013672,-124.52705383300781,73.55742645263672,-22.816967010498047,13.755805015563965,0.0
2171,-1.9208984375,-2.822998046875,-4.95947265625,487.0,-471.0,296.0,-27.95893669128418,18.6036376953125,0.0,134.65635681152344,-124.5630111694336,73.58002471923828,-22.814741134643555,13.7528076171875,0.0
2176,-1.9248046875,-2.823974609375,-4.9560546875,491.0,-470.0,300.0,-27.97506332397461,18.646425247192383,0.0,134.69383239746094,-124.59889221191406,73.6029281616211,-22.812328338623047,13.750188827514648,0.0
2181,-1.9228515625,-2.82568359375,-4.94873046875,500.0,-480.0,299.0,-28.02311134338379,18.645591735839844,0.0,134.73199462890625,-124.63553619384766,73.6257553100586,-22.809568405151367,13.746817588806152,0.0
2186,-1.92431640625,-2.82421875,-4.960693359375,495.0,-462.0,298.0,-27.958606719970703,18.629398345947266,0.0,134.769775390625,-124.67080688476562,73.64850616455078,-22.8067626953125,13.744717597961426,0.0
2191,-1.928955078125,-2.82421875,-4.9599609375,480.0,-480.0,293.0,-27.954164505004883,18.673133850097656,0.0,134.80641174316406,-124.70745086669922,73.6708755493164,-22.805076599121094,13.741555213928223,0.0
2196,-1.923583984375,-2.823974609375,-4.95556640625,519.0,-491.0,287.0,-27.979068756103516,18.63670539855957,0.0,134.8460235595703,-124.74493408203125,73.69278717041016,-22.800607681274414,13.737327575683594,0.0
2201,-1.923583984375,-2.820556640625,-4.960693359375,478.0,-457.0,323.0,-27.929012298583984,18.628297805786133,0.0,134.88250732421875,-124.77982330322266,73.71744537353516,-22.798931121826172,13.735644340515137,0.0
2206,-1.92822265625,-2.825927734375,-4.953369140625,501.0,-493.0,288.0,-27.99712562561035,18.68140411376953,0.0,134.92074584960938,-124.81745910644531,73.73943328857422,-22.795974731445312,13.73159408569336,0.0
2211,-1.923583984375,-2.8271484375,-4.949951171875,508.0,-454.0,312.0,-28.02914810180664,18.64676284790039,0.0,134.9595184326172,-124.85211181640625,73.76325225830078,-22.79271697998047,13.7302885055542,0.0
2216,-1.927490234375,-2.824951171875,-4.9541015625,508.0,-488.0,299.0,-27.9870548248291,18.674333572387695,0.0,134.998291015625,-124.88936614990234,73.78607940673828,-22.78919219970703,13.726593971252441,0.0
2221,-1.926025390625,-2.8271484375,-4.95556640625,499.0,-498.0,289.0,-28.00179100036621,18.65393829345703,0.0,135.036376953125,-124.92738342285156,73.80814361572266,-22.78646469116211,13.72202205657959,0.0
2226,-1.92138671875,-2.825439453125,-4.959716796875,523.0,-490.0,303.0,-27.977649688720703,18.603731155395508,0.0,135.0762939453125,-124.96479034423828,73.8312759399414,-22.781768798828125,13.717742919921875,0.0
2231,-1.927734375,-2.8251953125,-4.9599609375,504.0,-479.0,313.0,-27.964338302612305,18.660663604736328,0.0,135.11476135253906,-125.00135803222656,73.85517120361328,-22.7784481048584,13.714704513549805,0.0
2236,-1.9267578125,-2.82275390625,-4.95166015625,505.0,-491.0,333.0,-27.97993278503418,18.67751121520996,0.0,135.15330505371094,-125.0388412475586,73.8805923461914,-22.77517318725586,13.710884094238281,0.0
2241,-1.923095703125,-2.825439453125,-4.95263671875,486.0,-503.0,284.0,-28.004375457763672,18.637836456298828,0.0,135.19039916992188,-125.07723999023438,73.90227508544922,-22.773517608642578,13.705906867980957,0.0
2246,-1.925537109375,-2.827392578125,-4.95263671875,503.0,-481.0,297.0,-28.01683807373047,18.656911849975586,0.0,135.22879028320312,-125.11396026611328,73.9249496459961,-22.77066421508789,13.702754020690918,0.0
2251,-1.92822265625,-2.82568359375,-4.96484375,504.0,-444.0,297.0,-27.947368621826172,18.651424407958984,0.0,135.2672576904297,-125.1478500366211,73.94762420654297,-22.76728057861328,13.702383995056152,0.0
2256,-1.9228515625,-2.82275390625,-4.95947265625,490.0,-476.0,299.0,-27.953737258911133,18.62161636352539,0.0,135.30465698242188,-125.18418884277344,73.97045135498047,-22.765016555786133,13.699384689331055,0.0
2261,-1.9228515625,-2.82470703125,-4.963134765625,514.0,-449.0,301.0,-27.95492172241211,18.609020233154297,0.0,135.34388732910156,-125.21846008300781,73.9934310913086,-22.76095199584961,13.698362350463867,0.0
2266,-1.9228515625,-2.821533203125,-4.96044921875,537.0,-460.0,296.0,-27.939416885375977,18.620872497558594,0.0,135.38487243652344,-125.25357818603516,74.01602935791016,-22.75506019592285,13.696587562561035,0.0
2271,-1.921142578125,-2.822998046875,-4.952392578125,502.0,-489.0,282.0,-27.98802375793457,18.624536514282227,0.0,135.42318725585938,-125.29090881347656,74.03755950927734,-22.75218391418457,13.692646026611328,0.0
2276,-1.926025390625,-2.82861328125,-4.95654296875,508.0,-484.0,294.0,-28.010028839111328,18.64914894104004,0.0,135.4619598388672,-125.3278579711914,74.06000518798828,-22.749013900756836,13.68927001953125,0.0
2281,-1.9228515625,-2.82763671875,-4.954345703125,506.0,-476.0,304.0,-28.01611328125,18.6278076171875,0.0,135.50057983398438,-125.36419677734375,74.08321380615234,-22.746051788330078,13.686373710632324,0.0
2286,-1.923095703125,-2.824951171875,-4.95703125,517.0,-474.0,295.0,-27.98196792602539,18.626962661743164,0.0,135.5400390625,-125.40038299560547,74.1057357788086,-22.742040634155273,13.683637619018555,0.0
2291,-1.92578125,-2.8232421875,-4.963134765625,498.0,-490.0,294.0,-27.937898635864258,18.637619018554688,0.0,135.5780487060547,-125.43778991699219,74.12818145751953,-22.739194869995117,13.679773330688477,0.0
2297,-1.926513671875,-2.824462890625,-4.955810546875,492.0,-461.0,306.0,-27.977420806884766,18.6617431640625,0.0,135.6156005859375,-125.47298431396484,74.15154266357422,-22.737083435058594,13.678291320800781,0.0
2302,-1.922119140625,-2.821533203125,-4.963134765625,497.0,-463.0,271.0,-27.9294376373291,18.607181549072266,0.0,135.6611328125,-125.51539611816406,74.1763687133789,-22.726844787597656,13.669371604919434,0.0
2307,-1.922119140625,-2.822021484375,-4.95068359375,507.0,-480.0,310.0,-27.9853515625,18.639341354370117,0.0,135.6998291015625,-125.55204010009766,74.20003509521484,-22.72382354736328,13.666454315185547,0.0
2312,-1.92431640625,-2.826416015625,-4.954345703125,504.0,-461.0,306.0,-28.00348663330078,18.642858505249023,0.0,135.73829650878906,-125.58723449707031,74.22339630126953,-22.721166610717773,13.665014266967773,0.0
2317,-1.92724609375,-2.821533203125,-4.95263671875,505.0,-484.0,306.0,-27.964811325073242,18.681171417236328,0.0,135.77684020996094,-125.62418365478516,74.24675750732422,-22.718183517456055,13.662092208862305,0.0
2322,-1.92529296875,-2.82177734375,-4.953857421875,525.0,-469.0,269.0,-27.96494483947754,18.65995216369629,0.0,135.81690979003906,-125.65998840332031,74.26728820800781,-22.71369743347168,13.660178184509277,0.0
2327,-1.92236328125,-2.8251953125,-4.95849609375,506.0,-484.0,295.0,-27.979103088378906,18.61612319946289,0.0,135.85552978515625,-125.69693756103516,74.28981018066406,-22.710773468017578,13.656839370727539,0.0
2332,-1.92138671875,-2.8232421875,-4.958251953125,527.0,-507.0,285.0,-27.965280532836914,18.610897064208984,0.0,135.895751953125,-125.73564147949219,74.31156921386719,-22.7061767578125,13.651738166809082,0.0
2337,-1.92724609375,-2.82080078125,-4.956298828125,502.0,-506.0,304.0,-27.943418502807617,18.672574996948242,0.0,135.93406677246094,-125.7742691040039,74.33477783203125,-22.703353881835938,13.64715576171875,0.0
2342,-1.924072265625,-2.826171875,-4.956787109375,509.0,-477.0,314.0,-27.991662979125977,18.63457489013672,0.0,135.97291564941406,-125.81068420410156,74.35874938964844,-22.70033836364746,13.64454174041748,0.0
2347,-1.920166015625,-2.821533203125,-4.96435546875,514.0,-479.0,290.0,-27.927505493164062,18.586355209350586,0.0,136.01214599609375,-125.84725189208984,74.38088989257812,-22.6965274810791,13.641464233398438,0.0
2352,-1.927734375,-2.82568359375,-4.964599609375,501.0,-463.0,319.0,-27.949169158935547,18.647672653198242,0.0,136.05038452148438,-125.88259887695312,74.40524291992188,-22.693866729736328,13.64002799987793,0.0
2357,-1.920654296875,-2.82568359375,-4.957763671875,501.0,-476.0,295.0,-27.989011764526367,18.601909637451172,0.0,136.088623046875,-125.91893768310547,74.42776489257812,-22.691486358642578,13.637301445007324,0.0
2362,-1.92431640625,-2.82373046875,-4.9560546875,512.0,-497.0,300.0,-27.973800659179688,18.64238929748535,0.0,136.12770080566406,-125.95687866210938,74.45066833496094,-22.688180923461914,13.633268356323242,0.0
2367,-1.927001953125,-2.82568359375,-4.955322265625,502.0,-481.0,307.0,-27.988920211791992,18.66559600830078,0.0,136.166015625,-125.99359893798828,74.47410583496094,-22.68575096130371,13.63062572479248,0.0
2372,-1.926025390625,-2.82275390625,-4.953125,509.0,-459.0,328.0,-27.975021362304688,18.667024612426758,0.0,136.20486450195312,-126.02864074707031,74.4991455078125,-22.682706832885742,13.629673957824707,0.0
2377,-1.922119140625,-2.82666015625,-4.954345703125,497.0,-480.0,289.0,-28.009092330932617,18.62267303466797,0.0,136.2427978515625,-126.0652847290039,74.52120971679688,-22.680816650390625,13.626832962036133,0.0
2382,-1.92724609375,-2.82373046875,-4.953369140625,512.0,-462.0,297.0,-27.98023796081543,18.675914764404297,0.0,136.28187561035156,-126.10055541992188,74.54388427734375,-22.677602767944336,13.625728607177734,0.0
2387,-1.923583984375,-2.823974609375,-4.960205078125,539.0,-469.0,320.0,-27.959768295288086,18.624452590942383,0.0,136.32301330566406,-126.13636016845703,74.56831359863281,-22.67222023010254,13.623749732971191,0.0
2392,-1.92626953125,-2.828125,-4.95849609375,491.0,-498.0,261.0,-27.99740219116211,18.646923065185547,0.0,136.36048889160156,-126.17437744140625,74.5882339477539,-22.670761108398438,13.619730949401855,0.0
2397,-1.927490234375,-2.82666015625,-4.955078125,490.0,-463.0,293.0,-27.997350692749023,18.669170379638672,0.0,136.39788818359375,-126.20972442626953,74.61060333251953,-22.669382095336914,13.618537902832031,0.0
2402,-1.92041015625,-2.821044921875,-4.96337890625,507.0,-465.0,284.0,-27.927066802978516,18.59186363220215,0.0,136.43658447265625,-126.24522399902344,74.63228607177734,-22.66624641418457,13.616677284240723,0.0
2407,-1.924560546875,-2.822265625,-4.95654296875,522.0,-467.0,271.0,-27.959060668945312,18.645505905151367,0.0,136.47642517089844,-126.28087615966797,74.65296936035156,-22.66220474243164,13.615032196044922,0.0
2412,-1.921630859375,-2.83056640625,-4.951904296875,502.0,-479.0,299.0,-28.052886962890625,18.618824005126953,0.0,136.51473999023438,-126.31744384765625,74.67579650878906,-22.66033172607422,13.612305641174316,0.0
2417,-1.92431640625,-2.82470703125,-4.947998046875,504.0,-493.0,291.0,-28.01557731628418,18.662229537963867,0.0,136.55320739746094,-126.3550796508789,74.69801330566406,-22.658063888549805,13.608821868896484,0.0
2422,-1.926025390625,-2.8271484375,-4.95166015625,512.0,-481.0,305.0,-28.018064498901367,18.664268493652344,0.0,136.59228515625,-126.39179992675781,74.72129821777344,-22.655216217041016,13.606281280517578,0.0
2427,-1.924560546875,-2.825927734375,-4.96142578125,497.0,-477.0,317.0,-27.969524383544922,18.62709617614746,0.0,136.63021850585938,-126.42821502685547,74.74549865722656,-22.653194427490234,13.603806495666504,0.0
2433,-1.926513671875,-2.8232421875,-4.95458984375,517.0,-493.0,296.0,-27.972238540649414,18.66681480407715,0.0,136.669677734375,-126.46585083007812,74.76809692382812,-22.649682998657227,13.600397109985352,0.0
2438,-1.926025390625,-2.82373046875,-4.960693359375,506.0,-492.0,295.0,-27.951749801635742,18.64553451538086,0.0,136.71603393554688,-126.51091766357422,74.79512023925781,-22.639318466186523,13.589576721191406,0.0
2443,-1.923828125,-2.827880859375,-4.962158203125,496.0,-479.0,302.0,-27.984058380126953,18.615629196166992,0.0,136.75389099121094,-126.5474853515625,74.81817626953125,-22.637664794921875,13.587068557739258,0.0
2448,-1.923095703125,-2.8271484375,-4.956298828125,509.0,-471.0,318.0,-28.00347900390625,18.625587463378906,0.0,136.79273986816406,-126.58344268798828,74.84245300292969,-22.635162353515625,13.585245132446289,0.0
2453,-1.922119140625,-2.826416015625,-4.954833984375,516.0,-480.0,273.0,-28.005006790161133,18.62175178527832,0.0,136.83212280273438,-126.62008666992188,74.86329650878906,-22.632150650024414,13.582720756530762,0.0
2458,-1.92431640625,-2.826416015625,-4.953125,511.0,-464.0,284.0,-28.008573532104492,18.646085739135742,0.0,136.87112426757812,-126.65550994873047,74.88497924804688,-22.62955665588379,13.581584930419922,0.0
2463,-1.9208984375,-2.82666015625,-4.961669921875,482.0,-467.0,277.0,-27.980562210083008,18.592348098754883,0.0,136.9079132080078,-126.691162109375,74.9061279296875,-22.628982543945312,13.579861640930176,0.0
2468,-1.9228515625,-2.8212890625,-4.956787109375,509.0,-480.0,267.0,-27.952594757080078,18.63091468811035,0.0,136.94676208496094,-126.7278060913086,74.92650604248047,-22.62617301940918,13.577418327331543,0.0
2473,-1.923583984375,-2.823974609375,-4.951171875,502.0,-495.0,317.0,-27.997373580932617,18.648324966430664,0.0,136.98507690429688,-126.76559448242188,74.9507064819336,-22.624208450317383,13.573966026306152,0.0
2478,-1.925048828125,-2.82763671875,-4.951171875,494.0,-509.0,338.0,-28.025785446166992,18.65601348876953,0.0,137.0227813720703,-126.80445098876953,74.97650909423828,-22.623048782348633,13.5695219039917,0.0
2483,-1.923828125,-2.823974609375,-4.9580078125,509.0,-494.0,285.0,-27.96851348876953,18.632455825805664,0.0,137.06163024902344,-126.8421630859375,74.9982681274414,-22.62036895751953,13.566081047058105,0.0
2488,-1.926513671875,-2.82568359375,-4.954345703125,506.0,-483.0,295.0,-27.993776321411133,18.66377830505371,0.0,137.10025024414062,-126.87903594970703,75.02079010009766,-22.618099212646484,13.563703536987305,0.0
2493,-1.925537109375,-2.82666015625,-4.96044921875,501.0,-490.0,275.0,-27.978158950805664,18.637371063232422,0.0,137.13848876953125,-126.91644287109375,75.04178619384766,-22.616113662719727,13.560627937316895,0.0
2498,-1.925537109375,-2.8212890625,-4.95263671875,510.0,-464.0,292.0,-27.965524673461914,18.66612434387207,0.0,137.1774139404297,-126.95186614990234,75.06407928466797,-22.61336898803711,13.559733390808105,0.0
2503,-1.9267578125,-2.821044921875,-4.95703125,513.0,-474.0,299.0,-27.943218231201172,18.665864944458008,0.0,137.21656799316406,-126.98805236816406,75.08690643310547,-22.610261917114258,13.558079719543457,0.0
2508,-1.927490234375,-2.8291015625,-4.95654296875,501.0,-480.0,298.0,-28.011760711669922,18.66161346435547,0.0,137.2548065185547,-127.02469635009766,75.10965728759766,-22.608539581298828,13.555949211120605,0.0
2513,-1.924072265625,-2.825439453125,-4.959716796875,490.0,-469.0,293.0,-27.973318099975586,18.627939224243164,0.0,137.29220581054688,-127.06050109863281,75.13202667236328,-22.607398986816406,13.554435729980469,0.0
2518,-1.924072265625,-2.82373046875,-4.95263671875,502.0,-484.0,287.0,-27.988426208496094,18.64922332763672,0.0,137.3305206298828,-127.09745025634766,75.15393829345703,-22.605453491210938,13.551934242248535,0.0
2523,-1.92431640625,-2.824462890625,-4.959228515625,516.0,-484.0,298.0,-27.96674919128418,18.63290023803711,0.0,137.36990356445312,-127.1343994140625,75.17668914794922,-22.602310180664062,13.549334526062012,0.0
2528,-1.92431640625,-2.822021484375,-4.959716796875,478.0,-481.0,293.0,-27.944204330444336,18.63528060913086,0.0,137.40638732910156,-127.1711196899414,75.19905853271484,-22.601911544799805,13.546991348266602,0.0
2533,-1.923828125,-2.825439453125,-4.9609375,526.0,-501.0,301.0,-27.9686336517334,18.622516632080078,0.0,137.446533203125,-127.20936584472656,75.22203826904297,-22.598033905029297,13.543057441711426,0.0
2538,-1.9267578125,-2.822509765625,-4.956787109375,506.0,-496.0,307.0,-27.9565486907959,18.664304733276367,0.0,137.4851531982422,-127.24723052978516,75.24547576904297,-22.59561538696289,13.539804458618164,0.0
2543,-1.923828125,-2.82421875,-4.9619140625,526.0,-484.0,281.0,-27.954320907592773,18.621774673461914,0.0,137.52529907226562,-127.2841796875,75.26692962646484,-22.5916748046875,13.53719425201416,0.0
2548,-1.92138671875,-2.827392578125,-4.962158203125,503.0,-478.0,293.0,-27.98389434814453,18.594362258911133,0.0,137.56369018554688,-127.32067108154297,75.28929901123047,-22.58970069885254,13.534868240356445,0.0
2553,-1.92578125,-2.822998046875,-4.959716796875,519.0,-481.0,329.0,-27.950048446655273,18.647016525268555,0.0,137.60330200195312,-127.35739135742188,75.31441497802734,-22.58629608154297,13.532679557800293,0.0
2558,-1.917236328125,-2.825439453125,-4.951904296875,486.0,-468.0,267.0,-28.016902923583984,18.58688735961914,0.0,137.64039611816406,-127.39311981201172,75.33479309082031,-22.585857391357422,13.531083106994629,0.0
2563,-1.92578125,-2.823974609375,-4.958251953125,511.0,-468.0,278.0,-27.964344024658203,18.6494197845459,0.0,137.6793975830078,-127.42884826660156,75.35601806640625,-22.583171844482422,13.529911994934082,0.0
2569,-1.922119140625,-2.82177734375,-4.95703125,500.0,-472.0,299.0,-27.956865310668945,18.622928619384766,0.0,137.71755981445312,-127.46488189697266,75.37884521484375,-22.581283569335938,13.528264045715332,0.0
2574,-1.91943359375,-2.82470703125,-4.958740234375,508.0,-468.0,297.0,-27.978708267211914,18.589792251586914,0.0,137.76409912109375,-127.50775146484375,75.40605163574219,-22.57134437561035,13.519705772399902,0.0
2579,-1.92333984375,-2.828857421875,-4.95263671875,506.0,-470.0,281.0,-28.03270721435547,18.634883880615234,0.0,137.80271911621094,-127.54363250732422,75.42750549316406,-22.569684982299805,13.518447875976562,0.0
2584,-1.918701171875,-2.824951171875,-4.958740234375,497.0,-492.0,307.0,-27.9819393157959,18.58281898498535,0.0,137.8406524658203,-127.58119201660156,75.45094299316406,-22.568370819091797,13.515175819396973,0.0
2589,-1.92138671875,-2.82421875,-4.95263671875,493.0,-494.0,296.0,-27.996875762939453,18.624256134033203,0.0,137.87828063964844,-127.61890411376953,75.47354125976562,-22.56746482849121,13.512046813964844,0.0
2594,-1.921630859375,-2.8232421875,-4.957275390625,494.0,-480.0,281.0,-27.968950271606445,18.615676879882812,0.0,137.91598510742188,-127.65554809570312,75.4949951171875,-22.566295623779297,13.50993824005127,0.0
2599,-1.92578125,-2.82666015625,-4.9599609375,504.0,-482.0,292.0,-27.979795455932617,18.64086151123047,0.0,137.95445251464844,-127.69234466552734,75.51728820800781,-22.564443588256836,13.507856369018555,0.0
2604,-1.92041015625,-2.824462890625,-4.958251953125,515.0,-465.0,304.0,-27.977113723754883,18.60025405883789,0.0,137.99375915527344,-127.72784423828125,75.54049682617188,-22.56174659729004,13.506799697875977,0.0
2609,-1.92626953125,-2.826416015625,-4.95703125,475.0,-468.0,301.0,-27.989147186279297,18.653369903564453,0.0,138.03001403808594,-127.7635726928711,75.5634765625,-22.562177658081055,13.505873680114746,0.0
2614,-1.9287109375,-2.824951171875,-4.956298828125,507.0,-464.0,275.0,-27.975936889648438,18.679523468017578,0.0,138.06871032714844,-127.79899597167969,75.58447265625,-22.56008529663086,13.5054292678833,0.0
2619,-1.920654296875,-2.82470703125,-4.956787109375,516.0,-435.0,292.0,-27.984872817993164,18.605955123901367,0.0,138.10809326171875,-127.83219909667969,75.60676574707031,-22.5573787689209,13.50668716430664,0.0
2624,-1.926025390625,-2.82861328125,-4.95361328125,499.0,-487.0,288.0,-28.022232055664062,18.656890869140625,0.0,138.14617919921875,-127.86937713623047,75.62875366210938,-22.556224822998047,13.504331588745117,0.0
2629,-1.921875,-2.824462890625,-4.95947265625,502.0,-470.0,325.0,-27.96967315673828,18.610244750976562,0.0,138.1844940185547,-127.90525817871094,75.653564453125,-22.554492950439453,13.502962112426758,0.0
2634,-1.924560546875,-2.823974609375,-4.9521484375,493.0,-504.0,289.0,-27.991722106933594,18.65455436706543,0.0,138.2221221923828,-127.94373321533203,75.67562866210938,-22.553598403930664,13.499317169189453,0.0
2639,-1.92529296875,-2.821533203125,-4.954833984375,508.0,-478.0,288.0,-27.95882797241211,18.65773582458496,0.0,138.26089477539062,-127.980224609375,75.69761657714844,-22.551347732543945,13.497684478759766,0.0
2644,-1.9189453125,-2.82470703125,-4.960693359375,511.0,-465.0,310.0,-27.971364974975586,18.580242156982422,0.0,138.29989624023438,-128.01571655273438,75.72128295898438,-22.54896354675293,13.496524810791016,0.0
2649,-1.92138671875,-2.8232421875,-4.95458984375,522.0,-497.0,299.0,-27.980527877807617,18.620567321777344,0.0,138.33973693847656,-128.05364990234375,75.74411010742188,-22.545818328857422,13.49321174621582,0.0
2654,-1.925048828125,-2.824462890625,-4.959716796875,511.0,-484.0,291.0,-27.963537216186523,18.638212203979492,0.0,138.3787384033203,-128.09059143066406,75.76632690429688,-22.54340934753418,13.491021156311035,0.0
2659,-1.921142578125,-2.82421875,-4.95751953125,484.0,-486.0,295.0,-27.976930618286133,18.609159469604492,0.0,138.41567993164062,-128.127685546875,75.78884887695312,-22.543148040771484,13.488494873046875,0.0
2664,-1.9248046875,-2.82080078125,-4.950927734375,529.0,-506.0,296.0,-27.969715118408203,18.664777755737305,0.0,138.4560546875,-128.1663055419922,75.81144714355469,-22.539424896240234,13.484837532043457,0.0
2669,-1.92822265625,-2.820556640625,-4.95556640625,505.0,-492.0,291.0,-27.94283103942871,18.683691024780273,0.0,138.49459838867188,-128.203857421875,75.83366394042969,-22.53736114501953,13.482388496398926,0.0
2674,-1.921142578125,-2.822021484375,-4.96142578125,522.0,-482.0,305.0,-27.94221305847168,18.602153778076172,0.0,138.53443908691406,-128.2406463623047,75.85694885253906,-22.534015655517578,13.48016357421875,0.0
2679,-1.92431640625,-2.82470703125,-4.9580078125,498.0,-495.0,288.0,-27.973878860473633,18.63575553894043,0.0,138.57244873046875,-128.27842712402344,75.87893676757812,-22.532718658447266,13.477188110351562,0.0
2684,-1.925537109375,-2.826904296875,-4.95849609375,511.0,-490.0,309.0,-27.98833465576172,18.642162322998047,0.0,138.6114501953125,-128.31582641601562,75.90252685546875,-22.53053855895996,13.474650382995605,0.0
2689,-1.9208984375,-2.828369140625,-4.9541015625,501.0,-469.0,311.0,-28.026445388793945,18.609731674194336,0.0,138.64968872070312,-128.35162353515625,75.92626953125,-22.529380798339844,13.473501205444336,0.0
2694,-1.923095703125,-2.8251953125,-4.953125,535.0,-486.0,312.0,-28.000288009643555,18.636913299560547,0.0,138.69052124023438,-128.3887176513672,75.95008850097656,-22.52547264099121,13.4712495803833,0.0
2699,-1.93017578125,-2.823486328125,-4.953857421875,493.0,-471.0,281.0,-27.97140884399414,18.701406478881836,0.0,138.7281494140625,-128.42466735839844,75.97154235839844,-22.524578094482422,13.47057819366455,0.0
2705,-1.923828125,-2.82470703125,-4.95166015625,499.0,-482.0,309.0,-28.001102447509766,18.648130416870117,0.0,138.7662353515625,-128.46145629882812,75.99513244628906,-22.52342987060547,13.468716621398926,0.0
2710,-1.928466796875,-2.82275390625,-4.953125,492.0,-466.0,296.0,-27.971067428588867,18.689044952392578,0.0,138.81130981445312,-128.504150390625,76.02224731445312,-22.515260696411133,13.461384773254395,0.0
2715,-1.923828125,-2.82666015625,-4.95654296875,510.0,-476.0,294.0,-27.997177124023438,18.632282257080078,0.0,138.85023498535156,-128.5404815673828,76.04469299316406,-22.513412475585938,13.4600248336792,0.0
2720,-1.921875,-2.821533203125,-4.95361328125,507.0,-457.0,296.0,-27.969432830810547,18.630126953125,0.0,138.88893127441406,-128.5753631591797,76.06729125976562,-22.511611938476562,13.460095405578613,0.0
2725,-1.9248046875,-2.82666015625,-4.9599609375,496.0,-474.0,301.0,-27.981372833251953,18.632061004638672,0.0,138.92678833007812,-128.61154174804688,76.09027099609375,-22.510732650756836,13.458884239196777,0.0
2730,-1.923828125,-2.82568359375,-4.961669921875,503.0,-470.0,289.0,-27.967639923095703,18.62021827697754,0.0,138.96517944335938,-128.6474151611328,76.11233520507812,-22.509231567382812,13.457900047302246,0.0
2735,-1.923583984375,-2.82275390625,-4.95361328125,499.0,-484.0,295.0,-27.976938247680664,18.643707275390625,0.0,139.00326538085938,-128.68435668945312,76.13485717773438,-22.508100509643555,13.456014633178711,0.0
2740,-1.92333984375,-2.828125,-4.952392578125,509.0,-496.0,314.0,-28.027568817138672,18.636632919311523,0.0,139.0421142578125,-128.7222137451172,76.15882873535156,-22.506553649902344,13.453179359436035,0.0
2745,-1.922119140625,-2.825927734375,-4.95458984375,520.0,-482.0,289.0,-28.001920700073242,18.623130798339844,0.0,139.08180236816406,-128.75900268554688,76.18089294433594,-22.50400733947754,13.451329231262207,0.0
2750,-1.919921875,-2.824951171875,-4.954833984375,509.0,-477.0,281.0,-27.996244430541992,18.6041316986084,0.0,139.1206512451172,-128.79541015625,76.20234680175781,-22.502267837524414,13.449738502502441,0.0
2755,-1.92333984375,-2.8251953125,-4.960693359375,486.0,-478.0,307.0,-27.968385696411133,18.61912727355957,0.0,139.15774536132812,-128.83189392089844,76.22578430175781,-22.502092361450195,13.4481782913208,0.0
2760,-1.92431640625,-2.82568359375,-4.95361328125,510.0,-474.0,304.0,-28.000383377075195,18.645898818969727,0.0,139.19667053222656,-128.86807250976562,76.24899291992188,-22.500308990478516,13.447107315063477,0.0
2765,-1.925537109375,-2.823974609375,-4.9580078125,504.0,-445.0,293.0,-27.96575355529785,18.647863388061523,0.0,139.23513793945312,-128.90203857421875,76.2713623046875,-22.498754501342773,13.448250770568848,0.0
2770,-1.927001953125,-2.826171875,-4.95263671875,495.0,-468.0,299.0,-28.00420570373535,18.671966552734375,0.0,139.27291870117188,-128.93775939941406,76.294189453125,-22.498146057128906,13.447799682617188,0.0
2775,-1.92431640625,-2.82373046875,-4.952880859375,514.0,-476.0,260.0,-27.987014770507812,18.650781631469727,0.0,139.31214904785156,-128.97409057617188,76.31403350830078,-22.495981216430664,13.446599006652832,0.0
2780,-1.92236328125,-2.8251953125,-4.96240234375,519.0,-467.0,305.0,-27.962854385375977,18.605817794799805,0.0,139.3517608642578,-129.00973510742188,76.33731842041016,-22.4932861328125,13.445782661437988,0.0
2785,-1.923583984375,-2.8251953125,-4.951904296875,516.0,-460.0,283.0,-28.00458526611328,18.644546508789062,0.0,139.39114379882812,-129.0448455810547,76.35892486572266,-22.491111755371094,13.445758819580078,0.0
2790,-1.92529296875,-2.823486328125,-4.956787109375,499.0,-472.0,288.0,-27.96712303161621,18.649625778198242,0.0,139.42922973632812,-129.08087158203125,76.38091278076172,-22.4899845123291,13.444854736328125,0.0
2795,-1.926025390625,-2.82763671875,-4.948486328125,515.0,-488.0,288.0,-28.035402297973633,18.67192840576172,0.0,139.46853637695312,-129.1181182861328,76.40290069580078,-22.48810577392578,13.442889213562012,0.0
2800,-1.9267578125,-2.823974609375,-4.958740234375,505.0,-503.0,287.0,-27.960735321044922,18.656930923461914,0.0,139.507080078125,-129.15650939941406,76.42481231689453,-22.486492156982422,13.43969440460205,0.0
2805,-1.923095703125,-2.826904296875,-4.961181640625,508.0,-500.0,313.0,-27.981101989746094,18.61307144165039,0.0,139.5458526611328,-129.19467163085938,76.4487075805664,-22.48479461669922,13.436450958251953,0.0
2810,-1.925048828125,-2.822509765625,-4.952392578125,502.0,-475.0,299.0,-27.977598190307617,18.6605224609375,0.0,139.58416748046875,-129.23092651367188,76.4715347290039,-22.483535766601562,13.43543815612793,0.0
2815,-1.927490234375,-2.82470703125,-4.95654296875,504.0,-473.0,293.0,-27.97484588623047,18.668241500854492,0.0,139.6226348876953,-129.26702880859375,76.49390411376953,-22.48211097717285,13.434632301330566,0.0
2820,-1.92236328125,-2.823974609375,-4.953369140625,509.0,-461.0,298.0,-27.990192413330078,18.631500244140625,0.0,139.66148376464844,-129.30221557617188,76.51665496826172,-22.48041534423828,13.434492111206055,0.0
2825,-1.921875,-2.82568359375,-4.959228515625,501.0,-461.0,285.0,-27.98094367980957,18.609054565429688,0.0,139.69972229003906,-129.33740234375,76.53841400146484,-22.479270935058594,13.434198379516602,0.0
2830,-1.927978515625,-2.826904296875,-4.959228515625,518.0,-451.0,311.0,-27.981342315673828,18.6622257232666,0.0,139.7392578125,-129.371826171875,76.5621566772461,-22.476844787597656,13.435016632080078,0.0
2835,-1.92236328125,-2.81884765625,-4.952880859375,512.0,-477.0,298.0,-27.949098587036133,18.640514373779297,0.0,139.77833557128906,-129.40823364257812,76.58490753173828,-22.47467041015625,13.433709144592285,0.0
2841,-1.92626953125,-2.822509765625,-4.951416015625,508.0,-495.0,317.0,-27.979686737060547,18.674121856689453,0.0,139.81710815429688,-129.44601440429688,76.6091079711914,-22.47301483154297,13.431266784667969,0.0
2846,-1.924072265625,-2.825439453125,-4.95458984375,526.0,-479.0,315.0,-27.994657516479492,18.641483306884766,0.0,139.86529541015625,-129.48989868164062,76.6379623413086,-22.46223258972168,13.422669410705566,0.0
2851,-1.927001953125,-2.8232421875,-4.961181640625,517.0,-477.0,299.0,-27.944042205810547,18.653778076171875,0.0,139.90475463867188,-129.52630615234375,76.6607894897461,-22.459836959838867,13.421623229980469,0.0
2856,-1.926513671875,-2.82275390625,-4.954345703125,531.0,-485.0,321.0,-27.96915054321289,18.668197631835938,0.0,139.94528198242188,-129.56332397460938,76.68529510498047,-22.456558227539062,13.420069694519043,0.0
2861,-1.92529296875,-2.822509765625,-4.954833984375,502.0,-478.0,305.0,-27.967041015625,18.65626335144043,0.0,139.9835968017578,-129.5998077392578,76.70858001708984,-22.455482482910156,13.41897201538086,0.0
2866,-1.924560546875,-2.8251953125,-4.96533203125,504.0,-466.0,284.0,-27.947141647338867,18.617891311645508,0.0,140.02206420898438,-129.6353759765625,76.73026275634766,-22.45412254333496,13.418529510498047,0.0
2871,-1.9208984375,-2.826416015625,-4.954345703125,503.0,-467.0,294.0,-28.009014129638672,18.612028121948242,0.0,140.06045532226562,-129.6710205078125,76.7527084350586,-22.453258514404297,13.417969703674316,0.0
2876,-1.919677734375,-2.82861328125,-4.94873046875,501.0,-459.0,294.0,-28.052886962890625,18.612520217895508,0.0,140.09869384765625,-129.7060546875,76.77515411376953,-22.45284080505371,13.41801929473877,0.0
2881,-1.9287109375,-2.826416015625,-4.955810546875,510.0,-464.0,283.0,-27.99027442932129,18.678604125976562,0.0,140.1376190185547,-129.74147033691406,76.79676055908203,-22.451318740844727,13.41812801361084,0.0
