Time,Acc_low_X,Acc_low_Y,Acc_low_Z,Gyro_low_X,Gyro_low_Y,Gyro_low_Z,Acc_X,Acc_Y,Acc_Z,Gyro_X,Gyro_Y,Gyro_Z,Euler_X,Euler_Y,Euler_Z
5,-2.91748046875,-1.826416015625,-4.948974609375,526.0,-473.0,295.0,-17.636436462402344,28.944868087768555,0.0,81.62235260009766,-73.39804077148438,45.776790618896484,-17.098905563354492,28.39063835144043,0.0
10,-2.919189453125,-1.8251953125,-4.960205078125,491.0,-483.0,296.0,-17.595083236694336,28.912601470947266,0.0,81.65983581542969,-73.4349136352539,45.79938507080078,-17.32753562927246,28.632431030273438,0.0
15,-2.91650390625,-1.82470703125,-4.94482421875,486.0,-490.0,327.0,-17.63267707824707,28.957386016845703,0.0,81.69693756103516,-73.47232055664062,45.82434844970703,-17.40431785583496,28.71560287475586,0.0
20,-2.913330078125,-1.81640625,-4.946044921875,493.0,-477.0,319.0,-17.559009552001953,28.938892364501953,0.0,81.73457336425781,-73.50873565673828,45.84870147705078,-17.41470718383789,28.74403953552246,0.0
25,-2.9189453125,-1.823974609375,-4.95166015625,494.0,-452.0,301.0,-17.60552978515625,28.949344635009766,0.0,81.77228546142578,-73.5432357788086,45.87167739868164,-17.422666549682617,28.757457733154297,0.0
30,-2.9208984375,-1.82080078125,-4.951171875,525.0,-495.0,289.0,-17.57514190673828,28.972732543945312,0.0,81.81236267089844,-73.58102416992188,45.89373779296875,-17.41466522216797,28.76182746887207,0.0
35,-2.91552734375,-1.82470703125,-4.955078125,523.0,-479.0,279.0,-17.60868263244629,28.9050235748291,0.0,81.85228729248047,-73.61759185791016,45.915035247802734,-17.40815544128418,28.75093650817871,0.0
40,-2.91845703125,-1.827392578125,-4.949951171875,503.0,-464.0,325.0,-17.641429901123047,28.947219848632812,0.0,81.89068603515625,-73.65301513671875,45.93984603881836,-17.40372085571289,28.744482040405273,0.0
45,-2.916015625,-1.829833984375,-4.948486328125,479.0,-504.0,296.0,-17.670747756958008,28.92934226989746,0.0,81.92725372314453,-73.69149017333984,45.962440490722656,-17.400901794433594,28.730833053588867,0.0
50,-2.9150390625,-1.82275390625,-4.94677734375,472.0,-468.0,292.0,-17.612268447875977,28.939870834350586,0.0,81.96328735351562,-73.72721862792969,45.9847297668457,-17.389629364013672,28.719602584838867,0.0
56,-2.917724609375,-1.8271484375,-4.94873046875,489.0,-474.0,298.0,-17.64331817626953,28.94678497314453,0.0,82.00061798095703,-73.7634048461914,46.007476806640625,-17.3787841796875,28.707387924194336,0.0
61,-2.918212890625,-1.827392578125,-4.948486328125,528.0,-471.0,300.0,-17.645421981811523,28.951509475708008,0.0,82.04898071289062,-73.80654907226562,46.03495788574219,-17.35671043395996,28.688220977783203,0.0
66,-2.9150390625,-1.819091796875,-4.95263671875,521.0,-505.0,275.0,-17.564573287963867,28.920392990112305,0.0,82.08875274658203,-73.84510040283203,46.05595016479492,-17.336027145385742,28.6705379486084,0.0
71,-2.9208984375,-1.823486328125,-4.952880859375,515.0,-476.0,279.0,-17.595239639282227,28.96108627319336,0.0,82.12806701660156,-73.88143920898438,46.077247619628906,-17.31808853149414,28.657608032226562,0.0
76,-2.919677734375,-1.829345703125,-4.951904296875,491.0,-483.0,312.0,-17.652481079101562,28.945833206176758,0.0,82.1655502319336,-73.9183120727539,46.1010627746582,-17.30546760559082,28.642471313476562,0.0
81,-2.9150390625,-1.82421875,-4.94677734375,493.0,-484.0,320.0,-17.625547409057617,28.937538146972656,0.0,82.20318603515625,-73.95526123046875,46.125492095947266,-17.290264129638672,28.6263427734375,0.0
86,-2.91552734375,-1.8232421875,-4.950439453125,487.0,-475.0,314.0,-17.60690689086914,28.927349090576172,0.0,82.24036407470703,-73.99152374267578,46.14945983886719,-17.27397918701172,28.609996795654297,0.0
91,-2.915771484375,-1.825927734375,-4.95263671875,520.0,-456.0,297.0,-17.625429153442383,28.915637969970703,0.0,82.28005981445312,-74.02633666992188,46.1721305847168,-17.256107330322266,28.594181060791016,0.0
96,-2.912841796875,-1.8291015625,-4.955322265625,510.0,-491.0,318.0,-17.651775360107422,28.87466049194336,0.0,82.3189926147461,-74.0638198852539,46.19640350341797,-17.24015998840332,28.573514938354492,0.0
101,-2.916748046875,-1.82275390625,-4.95361328125,515.0,-490.0,312.0,-17.592844009399414,28.92458724975586,0.0,82.35830688476562,-74.10122680664062,46.220218658447266,-17.220552444458008,28.55563735961914,0.0
106,-2.91796875,-1.828369140625,-4.951904296875,479.0,-489.0,308.0,-17.646141052246094,28.933181762695312,0.0,82.3948745727539,-74.13855743408203,46.24372863769531,-17.20612335205078,28.53818130493164,0.0
111,-2.916748046875,-1.825439453125,-4.953125,505.0,-472.0,321.0,-17.618371963500977,28.92243003845215,0.0,82.43342590332031,-74.17459106445312,46.26823425292969,-17.18819808959961,28.521379470825195,0.0
116,-2.912841796875,-1.8212890625,-4.955322265625,491.0,-494.0,313.0,-17.58103370666504,28.88705062866211,0.0,82.47090911865234,-74.2123031616211,46.2921257019043,-17.1695613861084,28.501333236694336,0.0
121,-2.91748046875,-1.822265625,-4.953125,510.0,-495.0,281.0,-17.58856201171875,28.93355941772461,0.0,82.50984191894531,-74.25009155273438,46.313575744628906,-17.149860382080078,28.48328399658203,0.0
126,-2.91552734375,-1.826171875,-4.945556640625,503.0,-480.0,296.0,-17.645565032958984,28.94375991821289,0.0,82.5482406616211,-74.28673553466797,46.3361701965332,-17.133010864257812,28.466697692871094,0.0
131,-2.919189453125,-1.824462890625,-4.950439453125,523.0,-485.0,309.0,-17.61261749267578,28.95586585998535,0.0,82.58816528320312,-74.32376098632812,46.35975646972656,-17.113256454467773,28.45009994506836,0.0
136,-2.916748046875,-1.820068359375,-4.9482421875,503.0,-452.0,309.0,-17.581802368164062,28.952035903930664,0.0,82.6265640258789,-74.35826110839844,46.38334274291992,-17.09382438659668,28.435665130615234,0.0
141,-2.91357421875,-1.825439453125,-4.951416015625,498.0,-486.0,304.0,-17.627241134643555,28.90339469909668,0.0,82.66458129882812,-74.3953628540039,46.40654754638672,-17.076438903808594,28.416790008544922,0.0
146,-2.915283203125,-1.82861328125,-4.950927734375,488.0,-485.0,314.0,-17.654701232910156,28.914670944213867,0.0,82.70183563232422,-74.43238830566406,46.43051528930664,-17.060659408569336,28.398426055908203,0.0
151,-2.91650390625,-1.823486328125,-4.955322265625,501.0,-470.0,330.0,-17.595603942871094,28.91402816772461,0.0,82.74008178710938,-74.46826934814453,46.45570755004883,-17.04176139831543,28.381162643432617,0.0
156,-2.916259765625,-1.824951171875,-4.94921875,505.0,-503.0,280.0,-17.624345779418945,28.935993194580078,0.0,82.77863311767578,-74.50666809082031,46.477081298828125,-17.023517608642578,28.362159729003906,0.0
161,-2.918212890625,-1.82958984375,-4.95361328125,491.0,-481.0,304.0,-17.652591705322266,28.9259033203125,0.0,82.81611633300781,-74.54338836669922,46.50028610229492,-17.007164001464844,28.34447479248047,0.0
166,-2.9130859375,-1.822265625,-4.9560546875,515.0,-490.0,295.0,-17.587711334228516,28.884380340576172,0.0,82.85543060302734,-74.58079528808594,46.522804260253906,-16.986921310424805,28.324831008911133,0.0
171,-2.919189453125,-1.82421875,-4.94921875,494.0,-491.0,294.0,-17.61343002319336,28.961524963378906,0.0,82.89314270019531,-74.61827850341797,46.54524612426758,-16.969064712524414,28.3075008392334,0.0
176,-2.916259765625,-1.826904296875,-4.94970703125,498.0,-481.0,314.0,-17.640827178955078,28.930776596069336,0.0,82.93115997314453,-74.65499877929688,46.5692138671875,-16.951677322387695,28.28996467590332,0.0
181,-2.916259765625,-1.82373046875,-4.95166015625,506.0,-487.0,288.0,-17.607236862182617,28.927400588989258,0.0,82.96978759765625,-74.69217681884766,46.5911979675293,-16.93268585205078,28.271869659423828,0.0
186,-2.914794921875,-1.8203125,-4.95263671875,505.0,-480.0,303.0,-17.57598876953125,28.916427612304688,0.0,83.00833892822266,-74.72882080078125,46.61432647705078,-16.912919998168945,28.25399398803711,0.0
192,-2.917724609375,-1.828369140625,-4.9560546875,498.0,-484.0,298.0,-17.63620376586914,28.91326904296875,0.0,83.04635620117188,-74.7657699584961,46.6370735168457,-16.895347595214844,28.235742568969727,0.0
197,-2.917724609375,-1.822265625,-4.95947265625,536.0,-487.0,297.0,-17.5725154876709,28.908226013183594,0.0,83.095458984375,-74.81037902832031,46.66427993774414,-16.865283966064453,28.20992660522461,0.0
202,-2.916259765625,-1.820068359375,-4.9541015625,495.0,-484.0,306.0,-17.568023681640625,28.922679901123047,0.0,83.13324737548828,-74.84732818603516,46.68763732910156,-16.84644317626953,28.19215965270996,0.0
207,-2.91455078125,-1.830810546875,-4.951904296875,473.0,-501.0,309.0,-17.673240661621094,28.9008731842041,0.0,83.16935729980469,-74.88557434082031,46.71122360229492,-16.831899642944336,28.17258071899414,0.0
212,-2.916015625,-1.8271484375,-4.948974609375,509.0,-488.0,315.0,-17.645212173461914,28.931516647338867,0.0,83.20821380615234,-74.9228286743164,46.735267639160156,-16.81385612487793,28.15477180480957,0.0
217,-2.913818359375,-1.8212890625,-4.947509765625,519.0,-465.0,283.0,-17.598957061767578,28.928874969482422,0.0,83.24783325195312,-74.95832824707031,46.75687026977539,-16.793933868408203,28.13861083984375,0.0
222,-2.917236328125,-1.8232421875,-4.94873046875,505.0,-472.0,260.0,-17.608644485473633,28.948942184448242,0.0,83.28638458251953,-74.9943618774414,46.77671813964844,-16.77532196044922,28.122356414794922,0.0
227,-2.917724609375,-1.826904296875,-4.958984375,526.0,-492.0,297.0,-17.615694046020508,28.902978897094727,0.0,83.3265380859375,-75.03192138671875,46.79938888549805,-16.75531005859375,28.103515625,0.0
232,-2.917236328125,-1.82373046875,-4.9453125,509.0,-483.0,300.0,-17.62154197692871,28.962928771972656,0.0,83.36539459228516,-75.06879425048828,46.822288513183594,-16.73673439025879,28.086727142333984,0.0
237,-2.917724609375,-1.819091796875,-4.951904296875,497.0,-472.0,308.0,-17.56247329711914,28.945892333984375,0.0,83.40333557128906,-75.10482788085938,46.84579849243164,-16.71776008605957,28.070354461669922,0.0
242,-2.914794921875,-1.82568359375,-4.9521484375,502.0,-495.0,302.0,-17.6258544921875,28.91000747680664,0.0,83.44165802001953,-75.14261627197266,46.86885070800781,-16.699813842773438,28.05145835876465,0.0
247,-2.91455078125,-1.82470703125,-4.948486328125,496.0,-473.0,306.0,-17.626447677612305,28.925321578979492,0.0,83.47952270507812,-75.17872619628906,46.892208099365234,-16.68231773376465,28.034568786621094,0.0
252,-2.915771484375,-1.819580078125,-4.954833984375,507.0,-472.0,262.0,-17.5625,28.916234970092773,0.0,83.51822662353516,-75.21475982666016,46.912208557128906,-16.66265869140625,28.01755714416504,0.0
257,-2.91748046875,-1.82177734375,-4.953369140625,515.0,-496.0,299.0,-17.58353614807129,28.93328094482422,0.0,83.55754089355469,-75.25262451171875,46.93503189086914,-16.642881393432617,27.999095916748047,0.0
262,-2.9169921875,-1.8271484375,-4.960693359375,516.0,-502.0,313.0,-17.61473846435547,28.88915252685547,0.0,83.59693145751953,-75.29094696044922,46.95892333984375,-16.623699188232422,27.979326248168945,0.0
267,-2.9169921875,-1.822265625,-4.95849609375,494.0,-486.0,308.0,-17.575992584228516,28.90634536743164,0.0,83.6346435546875,-75.32804870605469,46.9824333190918,-16.605426788330078,27.96115493774414,0.0
272,-2.9130859375,-1.8251953125,-4.946533203125,494.0,-489.0,321.0,-17.637861251831055,28.920778274536133,0.0,83.67235565185547,-75.3653793334961,47.00693893432617,-16.588367462158203,27.943065643310547,0.0
277,-2.91552734375,-1.8251953125,-4.9501953125,514.0,-486.0,308.0,-17.625205993652344,28.9252986907959,0.0,83.71159362792969,-75.40248107910156,47.03044891357422,-16.569549560546875,27.925308227539062,0.0
282,-2.916748046875,-1.8203125,-4.949462890625,508.0,-505.0,304.0,-17.580995559692383,28.946374893188477,0.0,83.75037384033203,-75.44103240966797,47.053653717041016,-16.550373077392578,27.906536102294922,0.0
287,-2.917236328125,-1.8193359375,-4.948974609375,516.0,-496.0,297.0,-17.57263946533203,28.954097747802734,0.0,83.78976440429688,-75.47889709472656,47.076324462890625,-16.53048324584961,27.888607025146484,0.0
292,-2.917236328125,-1.829345703125,-4.947998046875,494.0,-510.0,311.0,-17.665752410888672,28.942380905151367,0.0,83.82747650146484,-75.51782989501953,47.10006332397461,-16.51397705078125,27.869428634643555,0.0
297,-2.915283203125,-1.82421875,-4.951416015625,483.0,-486.0,315.0,-17.613689422607422,28.919553756713867,0.0,83.86434936523438,-75.554931640625,47.124107360839844,-16.497337341308594,27.851680755615234,0.0
302,-2.91552734375,-1.82373046875,-4.95703125,486.0,-485.0,297.0,-17.595006942749023,28.89815902709961,0.0,83.90145111083984,-75.59195709228516,47.14677810668945,-16.480131149291992,27.83365249633789,0.0
307,-2.916259765625,-1.824462890625,-4.953857421875,516.0,-480.0,303.0,-17.608427047729492,28.916763305664062,0.0,83.94084167480469,-75.62860107421875,47.16990661621094,-16.46091079711914,27.81635093688965,0.0
312,-2.916748046875,-1.82177734375,-4.953857421875,501.0,-486.0,302.0,-17.58339500427246,28.925085067749023,0.0,83.97908782958984,-75.66570281982422,47.19295883178711,-16.442424774169922,27.798755645751953,0.0
317,-2.9150390625,-1.8212890625,-4.95361328125,499.0,-476.0,285.0,-17.58206558227539,28.91269874572754,0.0,84.01718139648438,-75.70204162597656,47.21471405029297,-16.424095153808594,27.781721115112305,0.0
322,-2.91748046875,-1.82568359375,-4.951904296875,503.0,-506.0,291.0,-17.622539520263672,28.933395385742188,0.0,84.05558013916016,-75.74066925048828,47.2369270324707,-16.40616226196289,27.762788772583008,0.0
328,-2.914794921875,-1.824951171875,-4.955810546875,516.0,-494.0,305.0,-17.610145568847656,28.8953914642334,0.0,84.094970703125,-75.77838134765625,47.26020812988281,-16.38706398010254,27.744176864624023,0.0
333,-2.91796875,-1.822265625,-4.95166015625,505.0,-504.0,297.0,-17.591474533081055,28.943939208984375,0.0,84.14122772216797,-75.82454681396484,47.28741455078125,-16.360965728759766,27.718093872070312,0.0
338,-2.913330078125,-1.82470703125,-4.957763671875,501.0,-460.0,285.0,-17.6052303314209,28.875185012817383,0.0,84.17947387695312,-75.85966491699219,47.30916976928711,-16.343122482299805,27.70194435119629,0.0
343,-2.9189453125,-1.83203125,-4.9501953125,495.0,-490.0,313.0,-17.68210220336914,28.94283103942871,0.0,84.2172622680664,-75.8970718383789,47.33306121826172,-16.32695198059082,27.684608459472656,0.0
348,-2.916259765625,-1.82421875,-4.957763671875,510.0,-497.0,295.0,-17.596548080444336,28.900318145751953,0.0,84.25619506835938,-75.93501281738281,47.3555793762207,-16.308303833007812,27.666101455688477,0.0
353,-2.917236328125,-1.824951171875,-4.954345703125,497.0,-483.0,293.0,-17.61021614074707,28.9220027923584,0.0,84.29413604736328,-75.97188568115234,47.37794494628906,-16.290874481201172,27.649019241333008,0.0
358,-2.921630859375,-1.828857421875,-4.9541015625,496.0,-479.0,302.0,-17.639759063720703,28.953365325927734,0.0,84.33200073242188,-76.00845336914062,47.400997161865234,-16.27397918701172,27.632728576660156,0.0
363,-2.914306640625,-1.819091796875,-4.9443359375,496.0,-514.0,298.0,-17.586179733276367,28.950145721435547,0.0,84.36986541748047,-76.04769134521484,47.423744201660156,-16.256282806396484,27.613758087158203,0.0
368,-2.91162109375,-1.82080078125,-4.9443359375,502.0,-481.0,316.0,-17.605606079101562,28.925060272216797,0.0,84.40818786621094,-76.08441162109375,47.4478645324707,-16.238445281982422,27.59693717956543,0.0
373,-2.916259765625,-1.825927734375,-4.954833984375,529.0,-471.0,289.0,-17.61927032470703,28.910228729248047,0.0,84.44857025146484,-76.12036895751953,47.46992492675781,-16.21879768371582,27.58066749572754,0.0
378,-2.919189453125,-1.822265625,-4.948974609375,511.0,-491.0,304.0,-17.59634017944336,28.965686798095703,0.0,84.48757934570312,-76.15785217285156,47.49312973022461,-16.20022201538086,27.563703536987305,0.0
383,-2.915283203125,-1.822265625,-4.954345703125,500.0,-478.0,320.0,-17.588743209838867,28.910022735595703,0.0,84.52574920654297,-76.19434356689453,47.51755905151367,-16.18239974975586,27.546934127807617,0.0
388,-2.919921875,-1.826171875,-4.9521484375,501.0,-478.0,308.0,-17.62278938293457,28.951860427856445,0.0,84.56399536132812,-76.2308349609375,47.54106903076172,-16.165010452270508,27.530773162841797,0.0
393,-2.91552734375,-1.82861328125,-4.955078125,503.0,-482.0,320.0,-17.64404296875,28.898822784423828,0.0,84.6023941040039,-76.26763153076172,47.56549835205078,-16.147783279418945,27.51357650756836,0.0
398,-2.91748046875,-1.823486328125,-4.953369140625,495.0,-482.0,292.0,-17.599014282226562,28.93056869506836,0.0,84.64018249511719,-76.30442810058594,47.58778762817383,-16.13054847717285,27.49684715270996,0.0
403,-2.917724609375,-1.823486328125,-4.949462890625,502.0,-493.0,296.0,-17.60832977294922,28.949453353881836,0.0,84.67850494384766,-76.3420639038086,47.610382080078125,-16.112934112548828,27.47956657409668,0.0
408,-2.91650390625,-1.826416015625,-4.947021484375,486.0,-498.0,315.0,-17.642711639404297,28.945173263549805,0.0,84.71560668945312,-76.38008117675781,47.63442611694336,-16.097013473510742,27.461875915527344,0.0
413,-2.921142578125,-1.825927734375,-4.951416015625,507.0,-485.0,309.0,-17.620609283447266,28.96555519104004,0.0,84.75431060791016,-76.41710662841797,47.65801239013672,-16.079214096069336,27.445466995239258,0.0
418,-2.9140625,-1.822021484375,-4.950927734375,482.0,-471.0,300.0,-17.596771240234375,28.91499137878418,0.0,84.79110717773438,-76.45306396484375,47.680912017822266,-16.06300926208496,27.429454803466797,0.0
423,-2.918212890625,-1.82177734375,-4.957763671875,509.0,-486.0,314.0,-17.57160758972168,28.920419692993164,0.0,84.82996368408203,-76.49016571044922,47.70487976074219,-16.044450759887695,27.412397384643555,0.0
428,-2.916748046875,-1.822509765625,-4.94970703125,500.0,-499.0,314.0,-17.60030174255371,28.941829681396484,0.0,84.86813354492188,-76.52825927734375,47.72884750366211,-16.026988983154297,27.39466667175293,0.0
433,-2.912353515625,-1.824462890625,-4.95654296875,496.0,-462.0,324.0,-17.607467651367188,28.872705459594727,0.0,84.90599822998047,-76.56352996826172,47.75358200073242,-16.00994873046875,27.378870010375977,0.0
438,-2.91748046875,-1.826416015625,-4.94970703125,501.0,-497.0,306.0,-17.634618759155273,28.941707611083984,0.0,84.94424438476562,-76.60147094726562,47.776939392089844,-15.992900848388672,27.36133575439453,0.0
443,-2.915283203125,-1.824462890625,-4.954345703125,504.0,-513.0,308.0,-17.608642578125,28.906538009643555,0.0,84.98271942138672,-76.64063262939453,47.80044937133789,-15.975319862365723,27.342185974121094,0.0
448,-2.919677734375,-1.82666015625,-4.954833984375,499.0,-490.0,294.0,-17.620914459228516,28.937475204467773,0.0,85.02081298828125,-76.67803955078125,47.82289123535156,-15.95829963684082,27.325214385986328,0.0
453,-2.9169921875,-1.822509765625,-4.95361328125,492.0,-466.0,304.0,-17.59027671813965,28.927005767822266,0.0,85.0583724975586,-76.71361541748047,47.84609603881836,-15.941451072692871,27.309951782226562,0.0
458,-2.91796875,-1.822021484375,-4.953125,480.0,-489.0,300.0,-17.58563995361328,28.938007354736328,0.0,85.09501647949219,-76.75094604492188,47.868995666503906,-15.92547607421875,27.29309844970703,0.0
464,-2.917724609375,-1.8251953125,-4.953125,509.0,-477.0,284.0,-17.614736557006836,28.930936813354492,0.0,85.13387298583984,-76.78736114501953,47.89067459106445,-15.907686233520508,27.277095794677734,0.0
469,-2.9169921875,-1.82177734375,-4.9443359375,521.0,-471.0,301.0,-17.606613159179688,28.968229293823242,0.0,85.18159484863281,-76.83050537109375,47.91824722290039,-15.881104469299316,27.254945755004883,0.0
474,-2.916015625,-1.827880859375,-4.953857421875,495.0,-483.0,307.0,-17.639728546142578,28.909303665161133,0.0,85.2193832397461,-76.86737823486328,47.941680908203125,-15.86488151550293,27.238374710083008,0.0
479,-2.9169921875,-1.826904296875,-4.953125,496.0,-481.0,306.0,-17.63127899169922,28.922130584716797,0.0,85.25724792480469,-76.90409851074219,47.96503829956055,-15.84849739074707,27.222137451171875,0.0
484,-2.915771484375,-1.817138671875,-4.959228515625,489.0,-497.0,298.0,-17.529539108276367,28.901147842407227,0.0,85.2945785522461,-76.9420394897461,47.98778533935547,-15.831459999084473,27.204471588134766,0.0
489,-2.915283203125,-1.82421875,-4.948486328125,521.0,-483.0,299.0,-17.620952606201172,28.932193756103516,0.0,85.3343505859375,-76.97891235351562,48.0106086730957,-15.813116073608398,27.188270568847656,0.0
494,-2.918701171875,-1.82373046875,-4.94921875,505.0,-484.0,307.0,-17.60972023010254,28.958240509033203,0.0,85.3729019165039,-77.01586151123047,48.03404235839844,-15.795893669128418,27.172321319580078,0.0
499,-2.9169921875,-1.824951171875,-4.94775390625,498.0,-480.0,281.0,-17.626907348632812,28.948408126831055,0.0,85.41091918945312,-77.05250549316406,48.05549240112305,-15.779430389404297,27.15658187866211,0.0
504,-2.916259765625,-1.826416015625,-4.9541015625,506.0,-476.0,309.0,-17.625505447387695,28.912609100341797,0.0,85.44954681396484,-77.0888442993164,48.079078674316406,-15.762372016906738,27.140756607055664,0.0
509,-2.91552734375,-1.830322265625,-4.944580078125,499.0,-507.0,335.0,-17.68560218811035,28.94135284423828,0.0,85.48764038085938,-77.12754821777344,48.104652404785156,-15.74655532836914,27.122943878173828,0.0
514,-2.916259765625,-1.82421875,-4.956298828125,511.0,-481.0,305.0,-17.600173950195312,28.90662956237793,0.0,85.52664947509766,-77.16426849365234,48.127933502197266,-15.728883743286133,27.106746673583984,0.0
519,-2.91650390625,-1.824462890625,-4.94775390625,496.0,-472.0,299.0,-17.623197555541992,28.94512367248535,0.0,85.56451416015625,-77.20030212402344,48.1507568359375,-15.71264362335205,27.091693878173828,0.0
524,-2.915283203125,-1.828125,-4.956298828125,489.0,-471.0,307.0,-17.636951446533203,28.89231300354004,0.0,85.60184478759766,-77.23625946044922,48.174190521240234,-15.697111129760742,27.07614517211914,0.0
529,-2.914306640625,-1.82373046875,-4.951904296875,483.0,-504.0,299.0,-17.609481811523438,28.910099029541016,0.0,85.63871765136719,-77.27473449707031,48.19701385498047,-15.681744575500488,27.05832862854004,0.0
534,-2.9150390625,-1.821044921875,-4.952392578125,500.0,-495.0,301.0,-17.582874298095703,28.918350219726562,0.0,85.67688751220703,-77.3125228881836,48.21998977661133,-15.66482162475586,27.041332244873047,0.0
539,-2.91845703125,-1.826904296875,-4.956298828125,482.0,-466.0,290.0,-17.62127685546875,28.920631408691406,0.0,85.71368408203125,-77.34809875488281,48.24212646484375,-15.649714469909668,27.026594161987305,0.0
544,-2.917236328125,-1.824951171875,-4.954345703125,503.0,-506.0,308.0,-17.61021614074707,28.9220027923584,0.0,85.75208282470703,-77.38672637939453,48.2656364440918,-15.632918357849121,27.008867263793945,0.0
549,-2.919189453125,-1.82275390625,-4.95166015625,466.0,-468.0,305.0,-17.594118118286133,28.95331382751465,0.0,85.78765869140625,-77.42245483398438,48.288917541503906,-15.618780136108398,26.99439811706543,0.0
554,-2.917724609375,-1.82470703125,-4.9501953125,509.0,-492.0,302.0,-17.617572784423828,28.944351196289062,0.0,85.8265151977539,-77.46001434326172,48.31196975708008,-15.601654052734375,26.97803497314453,0.0
559,-2.921875,-1.82421875,-4.950439453125,503.0,-498.0,321.0,-17.60648536682129,28.97857666015625,0.0,85.86491394042969,-77.49803161621094,48.33647537231445,-15.584904670715332,26.96161651611328,0.0
564,-2.91796875,-1.825439453125,-4.9501953125,512.0,-506.0,325.0,-17.623849868774414,28.945215225219727,0.0,85.90399932861328,-77.53665924072266,48.36128616333008,-15.567695617675781,26.944278717041016,0.0
569,-2.9150390625,-1.81884765625,-4.95166015625,522.0,-468.0,321.0,-17.564773559570312,28.92499542236328,0.0,85.94384765625,-77.5723876953125,48.38579177856445,-15.549156188964844,26.92964744567871,0.0
574,-2.91943359375,-1.82958984375,-4.94970703125,497.0,-498.0,302.0,-17.660499572753906,28.952890396118164,0.0,85.9817886352539,-77.61040496826172,48.408843994140625,-15.533561706542969,26.913061141967773,0.0
579,-2.913818359375,-1.8251953125,-4.94921875,514.0,-478.0,296.0,-17.630125045776367,28.9152889251709,0.0,86.02102661132812,-77.64689636230469,48.43143844604492,-15.516393661499023,26.89763641357422,0.0
584,-2.914306640625,-1.82177734375,-4.9521484375,483.0,-486.0,315.0,-17.5911808013916,28.912145614624023,0.0,86.05789947509766,-77.68399810791016,48.455482482910156,-15.501212120056152,26.881607055664062,0.0
589,-2.91748046875,-1.827392578125,-4.95751953125,510.0,-484.0,269.0,-17.624094009399414,28.90648078918457,0.0,86.09683227539062,-77.720947265625,48.476016998291016,-15.484353065490723,26.865711212158203,0.0
594,-2.918701171875,-1.8271484375,-4.948974609375,491.0,-484.0,303.0,-17.641284942626953,28.9538516998291,0.0,86.13431549072266,-77.75789642333984,48.4991455078125,-15.469144821166992,26.85033416748047,0.0
599,-2.91748046875,-1.823486328125,-4.945068359375,502.0,-488.0,298.0,-17.619577407836914,28.96640396118164,0.0,86.17263793945312,-77.79515075683594,48.52189254760742,-15.452912330627441,26.83481216430664,0.0
605,-2.91650390625,-1.821533203125,-4.951904296875,506.0,-504.0,314.0,-17.58637046813965,28.931867599487305,0.0,86.21898651123047,-77.84131622314453,48.550655364990234,-15.428475379943848,26.810192108154297,0.0
610,-2.914306640625,-1.826171875,-4.957763671875,509.0,-509.0,312.0,-17.617067337036133,28.880983352661133,0.0,86.25784301757812,-77.88017272949219,48.57447052001953,-15.41188907623291,26.79242706298828,0.0
615,-2.915283203125,-1.8232421875,-4.950927734375,514.0,-491.0,283.0,-17.60605239868164,28.9232120513916,0.0,86.29708099365234,-77.91765594482422,48.596073150634766,-15.394855499267578,26.77650260925293,0.0
620,-2.916259765625,-1.824951171875,-4.951416015625,483.0,-492.0,315.0,-17.618898391723633,28.926513671875,0.0,86.33395385742188,-77.95521545410156,48.6201171875,-15.380339622497559,26.760574340820312,0.0
625,-2.919677734375,-1.82666015625,-4.949951171875,497.0,-474.0,306.0,-17.633012771606445,28.958534240722656,0.0,86.37189483642578,-77.99140167236328,48.64347457885742,-15.3649263381958,26.746362686157227,0.0
630,-2.916015625,-1.823974609375,-4.95556640625,489.0,-494.0,282.0,-17.60013198852539,28.90814208984375,0.0,86.40922546386719,-78.02911376953125,48.665000915527344,-15.349828720092773,26.730167388916016,0.0
635,-2.916015625,-1.821044921875,-4.94921875,496.0,-471.0,302.0,-17.589305877685547,28.94017219543457,0.0,86.44709014892578,-78.06507110595703,48.688053131103516,-15.334126472473145,26.716068267822266,0.0
640,-2.918212890625,-1.825927734375,-4.95263671875,502.0,-475.0,315.0,-17.621864318847656,28.935937881469727,0.0,86.48541259765625,-78.10133361816406,48.71209716796875,-15.318323135375977,26.701650619506836,0.0
645,-2.917724609375,-1.825439453125,-4.94482421875,506.0,-486.0,296.0,-17.637527465820312,28.96637535095215,0.0,86.52404022216797,-78.13843536376953,48.73469161987305,-15.302406311035156,26.68671989440918,0.0
650,-2.91943359375,-1.82470703125,-4.953125,493.0,-496.0,274.0,-17.60782241821289,28.945919036865234,0.0,86.56167602539062,-78.17630004882812,48.75560760498047,-15.287225723266602,26.670869827270508,0.0
655,-2.915771484375,-1.828857421875,-4.95263671875,492.0,-487.0,313.0,-17.651954650878906,28.910978317260742,0.0,86.59923553466797,-78.2134780883789,48.77949905395508,-15.272575378417969,26.65540885925293,0.0
660,-2.918701171875,-1.822998046875,-4.945068359375,480.0,-466.0,329.0,-17.613365173339844,28.977338790893555,0.0,86.63587951660156,-78.24905395507812,48.80461502075195,-15.25849437713623,26.642208099365234,0.0
665,-2.917724609375,-1.818115234375,-4.951904296875,494.0,-490.0,288.0,-17.553625106811523,28.94744110107422,0.0,86.67359161376953,-78.28646087646484,48.82659912109375,-15.242815017700195,26.62692642211914,0.0
670,-2.919189453125,-1.82177734375,-4.9453125,498.0,-476.0,315.0,-17.600980758666992,28.982290267944336,0.0,86.71160888671875,-78.32279968261719,48.850643157958984,-15.22732162475586,26.61307144165039,0.0
675,-2.920166015625,-1.823486328125,-4.949951171875,527.0,-508.0,291.0,-17.60355567932129,28.9676456451416,0.0,86.75183868408203,-78.36157989501953,48.87285614013672,-15.209698677062988,26.596683502197266,0.0
680,-2.918212890625,-1.82568359375,-4.9482421875,528.0,-470.0,317.0,-17.63054656982422,28.95528793334961,0.0,86.79214477539062,-78.3974609375,48.89705276489258,-15.19231128692627,26.58310317993164,0.0
685,-2.91357421875,-1.827392578125,-4.953857421875,493.0,-493.0,313.0,-17.638872146606445,28.889772415161133,0.0,86.82978057861328,-78.43509674072266,48.92094421386719,-15.177704811096191,26.56719970703125,0.0
690,-2.91650390625,-1.828369140625,-4.9462890625,521.0,-495.0,310.0,-17.6622257232666,28.945220947265625,0.0,86.86955261230469,-78.47288513183594,48.94460678100586,-15.16122817993164,26.551706314086914,0.0
695,-2.91552734375,-1.825439453125,-4.949951171875,491.0,-491.0,288.0,-17.628023147583008,28.925962448120117,0.0,86.90703582763672,-78.51036834716797,48.966590881347656,-15.146754264831543,26.5363826751709,0.0
700,-2.914306640625,-1.8251953125,-4.947021484375,498.0,-507.0,284.0,-17.634864807128906,28.928831100463867,0.0,86.94505310058594,-78.549072265625,48.9882698059082,-15.13184642791748,26.519920349121094,0.0
705,-2.914306640625,-1.82470703125,-4.951171875,509.0,-490.0,296.0,-17.62014389038086,28.911705017089844,0.0,86.9839096069336,-78.58647918701172,49.0108642578125,-15.116009712219238,26.504640579223633,0.0
710,-2.920166015625,-1.828125,-4.95458984375,504.0,-498.0,312.0,-17.634061813354492,28.940256118774414,0.0,87.02238464355469,-78.62449645996094,49.0346794128418,-15.100723266601562,26.489059448242188,0.0
715,-2.915283203125,-1.824462890625,-4.9482421875,521.0,-491.0,290.0,-17.623769760131836,28.932859420776367,0.0,87.0621566772461,-78.66197967529297,49.05681610107422,-15.084098815917969,26.473987579345703,0.0
720,-2.91748046875,-1.82421875,-4.955078125,491.0,-489.0,321.0,-17.601415634155273,28.92203712463379,0.0,87.09963989257812,-78.69931030273438,49.081321716308594,-15.069596290588379,26.459012985229492,0.0
725,-2.9169921875,-1.82470703125,-4.95654296875,519.0,-489.0,318.0,-17.602922439575195,28.910892486572266,0.0,87.1392593383789,-78.73664093017578,49.105594635009766,-15.05302619934082,26.44398307800293,0.0
730,-2.914306640625,-1.81787109375,-4.952880859375,500.0,-490.0,288.0,-17.553970336914062,28.915178298950195,0.0,87.17742919921875,-78.7740478515625,49.12757873535156,-15.03751277923584,26.4289608001709,0.0
735,-2.914794921875,-1.824462890625,-4.951904296875,502.0,-493.0,288.0,-17.615402221679688,28.913000106811523,0.0,87.21575164794922,-78.81168365478516,49.14956283569336,-15.022441864013672,26.41373634338379,0.0
741,-2.9189453125,-1.82861328125,-4.955810546875,469.0,-493.0,291.0,-17.637237548828125,28.924076080322266,0.0,87.25871276855469,-78.85684204101562,49.17621994018555,-15.003058433532715,26.391246795654297,0.0
746,-2.91943359375,-1.823974609375,-4.953857421875,523.0,-473.0,290.0,-17.599380493164062,28.943923950195312,0.0,87.29863739013672,-78.89295196533203,49.19835662841797,-14.986431121826172,26.37801742553711,0.0
751,-2.91845703125,-1.82568359375,-4.95361328125,506.0,-479.0,290.0,-17.616880416870117,28.934144973754883,0.0,87.33726501464844,-78.92951965332031,49.22049331665039,-14.971302032470703,26.364276885986328,0.0
756,-2.9189453125,-1.823974609375,-4.9521484375,458.0,-484.0,311.0,-17.604320526123047,28.947237014770508,0.0,87.37223052978516,-78.96646881103516,49.244232177734375,-14.959738731384277,26.35030746459961,0.0
761,-2.917724609375,-1.826416015625,-4.944091796875,496.0,-478.0,288.0,-17.648197174072266,28.96798324584961,0.0,87.41009521484375,-79.00296020507812,49.26621627807617,-14.945697784423828,26.33700942993164,0.0
766,-2.91796875,-1.822265625,-4.94970703125,473.0,-480.0,291.0,-17.5963077545166,28.95237159729004,0.0,87.44620513916016,-79.03960418701172,49.288429260253906,-14.93298053741455,26.323453903198242,0.0
771,-2.919921875,-1.825439453125,-4.957275390625,514.0,-511.0,292.0,-17.603469848632812,28.930917739868164,0.0,87.48544311523438,-79.07861328125,49.31071853637695,-14.917247772216797,26.307403564453125,0.0
776,-2.9189453125,-1.82421875,-4.94677734375,500.0,-497.0,315.0,-17.619836807250977,28.97003936767578,0.0,87.52361297607422,-79.1165542602539,49.33476257324219,-14.902769088745117,26.29280662536621,0.0
781,-2.9169921875,-1.82373046875,-4.9501953125,491.0,-490.0,289.0,-17.60979652404785,28.93981170654297,0.0,87.56109619140625,-79.15396118164062,49.3568229675293,-14.888925552368164,26.278522491455078,0.0
786,-2.91748046875,-1.823974609375,-4.952880859375,492.0,-515.0,294.0,-17.604644775390625,28.93189811706543,0.0,87.5986557006836,-79.19327545166016,49.37926483154297,-14.874999046325684,26.26232147216797,0.0
791,-2.917236328125,-1.825439453125,-4.9482421875,503.0,-490.0,297.0,-17.629762649536133,28.947553634643555,0.0,87.63705444335938,-79.23068237304688,49.40193557739258,-14.860493659973145,26.248205184936523,0.0
796,-2.91796875,-1.821044921875,-4.95068359375,515.0,-476.0,296.0,-17.58283233642578,28.95009422302246,0.0,87.6763687133789,-79.26702117919922,49.424530029296875,-14.844722747802734,26.235212326049805,0.0
801,-2.91650390625,-1.825439453125,-4.95068359375,486.0,-485.0,314.0,-17.624778747558594,28.930927276611328,0.0,87.71347045898438,-79.30404663085938,49.4484977722168,-14.831560134887695,26.221406936645508,0.0
806,-2.92041015625,-1.82861328125,-4.95703125,525.0,-472.0,299.0,-17.6320743560791,28.930988311767578,0.0,87.75354766845703,-79.34008026123047,49.47132110595703,-14.815539360046387,26.208627700805664,0.0
811,-2.917236328125,-1.8271484375,-4.950439453125,502.0,-478.0,299.0,-17.639793395996094,28.935352325439453,0.0,87.7918701171875,-79.37657165527344,49.494144439697266,-14.801382064819336,26.195463180541992,0.0
816,-2.91796875,-1.8203125,-4.94970703125,496.0,-484.0,280.0,-17.578611373901367,28.955474853515625,0.0,87.8297348022461,-79.41352081298828,49.51551818847656,-14.787205696105957,26.182050704956055,0.0
821,-2.91748046875,-1.82958984375,-4.953857421875,488.0,-492.0,318.0,-17.653057098388672,28.918764114379883,0.0,87.86698913574219,-79.45108032226562,49.539791107177734,-14.774304389953613,26.167762756347656,0.0
826,-2.918212890625,-1.826416015625,-4.94677734375,512.0,-495.0,291.0,-17.64081573486328,28.960445404052734,0.0,87.90607452392578,-79.4888687133789,49.56200408935547,-14.759515762329102,26.153644561767578,0.0
831,-2.9140625,-1.822265625,-4.95556640625,500.0,-456.0,293.0,-17.587499618530273,28.894607543945312,0.0,87.94424438476562,-79.523681640625,49.58436965942383,-14.745240211486816,26.1419734954834,0.0
836,-2.9140625,-1.82568359375,-4.947998046875,507.0,-473.0,300.0,-17.637222290039062,28.92180824279785,0.0,87.98294830322266,-79.5597915649414,49.607269287109375,-14.730894088745117,26.129270553588867,0.0
841,-2.91845703125,-1.8271484375,-4.944580078125,473.0,-494.0,320.0,-17.652549743652344,28.970796585083008,0.0,88.01905822753906,-79.59750366210938,49.63169860839844,-14.719295501708984,26.11541748046875,0.0
846,-2.9150390625,-1.825927734375,-4.943603515625,531.0,-492.0,304.0,-17.64891815185547,28.94852066040039,0.0,88.0595932006836,-79.63506317138672,49.654903411865234,-14.703299522399902,26.10157585144043,0.0
851,-2.913818359375,-1.824462890625,-4.955322265625,493.0,-483.0,300.0,-17.60835838317871,28.890146255493164,0.0,88.09722900390625,-79.67193603515625,49.67780303955078,-14.689906120300293,26.087980270385742,0.0
856,-2.91748046875,-1.828857421875,-4.9541015625,517.0,-486.0,303.0,-17.645822525024414,28.91887664794922,0.0,88.1366958618164,-79.70903778076172,49.700931549072266,-14.675044059753418,26.074438095092773,0.0
861,-2.917236328125,-1.823974609375,-4.94970703125,497.0,-482.0,277.0,-17.61286163330078,28.943561553955078,0.0,88.17463684082031,-79.74583435058594,49.722076416015625,-14.661478996276855,26.061445236206055,0.0
866,-2.9169921875,-1.827392578125,-4.947998046875,493.0,-475.0,284.0,-17.648420333862305,28.943464279174805,0.0,88.21227264404297,-79.78209686279297,49.74375534057617,-14.648550033569336,26.049022674560547,0.0
871,-2.920166015625,-1.82861328125,-4.951416015625,500.0,-501.0,304.0,-17.64634895324707,28.953163146972656,0.0,88.25044250488281,-79.82034301757812,49.76696014404297,-14.635111808776855,26.034746170043945,0.0
877,-2.917236328125,-1.822265625,-4.948486328125,498.0,-468.0,293.0,-17.600399017333984,28.951549530029297,0.0,88.29605865478516,-79.86321258544922,49.793800354003906,-14.61401081085205,26.015975952148438,0.0
882,-2.915283203125,-1.823486328125,-4.9501953125,496.0,-479.0,289.0,-17.610078811645508,28.925983428955078,0.0,88.33392333984375,-79.8997802734375,49.815860748291016,-14.600785255432129,26.003337860107422,0.0
887,-2.917724609375,-1.828125,-4.952880859375,505.0,-457.0,293.0,-17.641864776611328,28.927331924438477,0.0,88.37247467041016,-79.9346694946289,49.838226318359375,-14.587178230285645,25.992416381835938,0.0
892,-2.916015625,-1.824462890625,-4.948974609375,493.0,-481.0,310.0,-17.62088394165039,28.935791015625,0.0,88.41011047363281,-79.97138977050781,49.86188888549805,-14.574353218078613,25.97977066040039,0.0
897,-2.9140625,-1.822021484375,-4.94775390625,502.0,-467.0,280.0,-17.60463523864746,28.928688049316406,0.0,88.44843292236328,-80.00704193115234,49.883262634277344,-14.560755729675293,25.968168258666992,0.0
902,-2.9140625,-1.82080078125,-4.95556640625,491.0,-485.0,340.0,-17.57423210144043,28.896926879882812,0.0,88.48591613769531,-80.0440673828125,49.909217834472656,-14.547792434692383,25.95497703552246,0.0
907,-2.9189453125,-1.83056640625,-4.95556640625,493.0,-480.0,292.0,-17.65550994873047,28.922021865844727,0.0,88.52355194091797,-80.0807113647461,49.9315071105957,-14.535370826721191,25.942411422729492,0.0
912,-2.922607421875,-1.823486328125,-4.962158203125,500.0,-478.0,281.0,-17.569833755493164,28.935279846191406,0.0,88.56172180175781,-80.11720275878906,49.95295715332031,-14.521770477294922,25.930143356323242,0.0
917,-2.917724609375,-1.827392578125,-4.957275390625,509.0,-483.0,264.0,-17.624343872070312,28.909561157226562,0.0,88.60057830810547,-80.1540756225586,49.97311019897461,-14.50797176361084,25.917329788208008,0.0
922,-2.91845703125,-1.825927734375,-4.953857421875,513.0,-492.0,307.0,-17.618484497070312,28.932703018188477,0.0,88.63973999023438,-80.19163513183594,49.996543884277344,-14.493871688842773,25.904064178466797,0.0
927,-2.916259765625,-1.825927734375,-4.955810546875,492.0,-493.0,308.0,-17.616851806640625,28.906021118164062,0.0,88.67729949951172,-80.2292709350586,50.02005386352539,-14.481401443481445,25.89055824279785,0.0
932,-2.913818359375,-1.8212890625,-4.952880859375,508.0,-455.0,292.0,-17.585655212402344,28.905698776245117,0.0,88.71607971191406,-80.26400756835938,50.04234313964844,-14.467512130737305,25.879976272583008,0.0
937,-2.915283203125,-1.828125,-4.94921875,491.0,-509.0,289.0,-17.654523849487305,28.922815322875977,0.0,88.7535629272461,-80.30286407470703,50.06440353393555,-14.45550537109375,25.865468978881836,0.0
942,-2.91796875,-1.823974609375,-4.9521484375,506.0,-495.0,310.0,-17.605745315551758,28.939117431640625,0.0,88.79219055175781,-80.34065246582031,50.08806610107422,-14.442014694213867,25.85220718383789,0.0
947,-2.915771484375,-1.81982421875,-4.9560546875,506.0,-468.0,303.0,-17.561697006225586,28.91058349609375,0.0,88.83081817626953,-80.37638092041016,50.1111946105957,-14.428226470947266,25.8408145904541,0.0
952,-2.914306640625,-1.828125,-4.951904296875,497.0,-506.0,309.0,-17.649282455444336,28.903114318847656,0.0,88.86875915527344,-80.41500854492188,50.13478088378906,-14.41585922241211,25.826520919799805,0.0
957,-2.9189453125,-1.827880859375,-4.946044921875,522.0,-457.0,300.0,-17.654830932617188,28.967363357543945,0.0,88.90860748291016,-80.44989776611328,50.15768051147461,-14.40168285369873,25.816499710083008,0.0
962,-2.915771484375,-1.82080078125,-4.951416015625,517.0,-467.0,299.0,-17.58201026916504,28.929044723510742,0.0,88.94807434082031,-80.48554992675781,50.180503845214844,-14.387371063232422,25.80544662475586,0.0
967,-2.917724609375,-1.82177734375,-4.955078125,492.0,-499.0,294.0,-17.578954696655273,28.927940368652344,0.0,88.98563385009766,-80.52364349365234,50.202945709228516,-14.374985694885254,25.791994094848633,0.0
972,-2.920166015625,-1.82568359375,-4.943603515625,499.0,-479.0,318.0,-17.639192581176758,28.991573333740234,0.0,89.02372741699219,-80.56021118164062,50.22721862792969,-14.362582206726074,25.780601501464844,0.0
977,-2.91796875,-1.8173828125,-4.9580078125,514.0,-461.0,306.0,-17.531572341918945,28.92428970336914,0.0,89.0629653930664,-80.59540557861328,50.25057601928711,-14.348249435424805,25.77008819580078,0.0
982,-2.91552734375,-1.823486328125,-4.9560546875,504.0,-493.0,296.0,-17.595212936401367,28.902751922607422,0.0,89.1014404296875,-80.63304138183594,50.273170471191406,-14.335227012634277,25.75701332092285,0.0
987,-2.913818359375,-1.826904296875,-4.953369140625,500.0,-510.0,325.0,-17.63530731201172,28.894681930541992,0.0,89.13961029052734,-80.6719741821289,50.29798126220703,-14.322866439819336,25.742639541625977,0.0
992,-2.916259765625,-1.824951171875,-4.943359375,473.0,-495.0,300.0,-17.638883590698242,28.961294174194336,0.0,89.17572021484375,-80.70976257324219,50.32088088989258,-14.3126220703125,25.729976654052734,0.0
997,-2.916015625,-1.8251953125,-4.954345703125,498.0,-482.0,306.0,-17.614206314086914,28.91146469116211,0.0,89.21373748779297,-80.7465591430664,50.34423828125,-14.300321578979492,25.71796226501465,0.0
1002,-2.912109375,-1.830322265625,-4.95263671875,480.0,-480.0,291.0,-17.670568466186523,28.878185272216797,0.0,89.25038146972656,-80.783203125,50.366451263427734,-14.289861679077148,25.705886840820312,0.0
1007,-2.91796875,-1.828369140625,-4.943603515625,484.0,-468.0,306.0,-17.666751861572266,28.969003677368164,0.0,89.2873306274414,-80.81893157958984,50.389808654785156,-14.279099464416504,25.695465087890625,0.0
1013,-2.916748046875,-1.822265625,-4.94580078125,508.0,-501.0,303.0,-17.607765197753906,28.959089279174805,0.0,89.3338623046875,-80.86482238769531,50.417564392089844,-14.258468627929688,25.674972534179688,0.0
1018,-2.915771484375,-1.828369140625,-4.95361328125,508.0,-478.0,274.0,-17.645111083984375,28.907548904418945,0.0,89.37264251708984,-80.90131378173828,50.438480377197266,-14.245928764343262,25.663524627685547,0.0
1023,-2.918212890625,-1.8232421875,-4.94873046875,498.0,-489.0,313.0,-17.607219696044922,28.95706558227539,0.0,89.41065979003906,-80.93864440917969,50.462371826171875,-14.233902931213379,25.651662826538086,0.0
1028,-2.91552734375,-1.821533203125,-4.951904296875,494.0,-479.0,296.0,-17.58779525756836,28.923744201660156,0.0,89.44837188720703,-80.97521209716797,50.48496627807617,-14.222075462341309,25.64034652709961,0.0
1033,-2.915283203125,-1.82177734375,-4.955322265625,491.0,-489.0,326.0,-17.581905364990234,28.906587600708008,0.0,89.48585510253906,-81.01254272460938,50.50985336303711,-14.210472106933594,25.62818145751953,0.0
1038,-2.91552734375,-1.824951171875,-4.9443359375,505.0,-467.0,323.0,-17.637531280517578,28.950979232788086,0.0,89.52440643310547,-81.0481948852539,50.53451156616211,-14.198273658752441,25.61806869506836,0.0
1043,-2.914306640625,-1.826904296875,-4.947509765625,502.0,-477.0,296.0,-17.649139404296875,28.92400360107422,0.0,89.56272888183594,-81.08460998535156,50.557106018066406,-14.18643569946289,25.607025146484375,0.0
1048,-2.9150390625,-1.823486328125,-4.958251953125,498.0,-492.0,293.0,-17.590486526489258,28.88922691345215,0.0,89.60074615478516,-81.1221694946289,50.579471588134766,-14.17449951171875,25.594619750976562,0.0
1053,-2.91455078125,-1.827880859375,-4.957275390625,501.0,-494.0,297.0,-17.63338851928711,28.88240623474121,0.0,89.63899230957031,-81.15988159179688,50.602142333984375,-14.162705421447754,25.582061767578125,0.0
1058,-2.912841796875,-1.826416015625,-4.95068359375,492.0,-480.0,309.0,-17.638975143432617,28.89890480041504,0.0,89.67655181884766,-81.19652557373047,50.625728607177734,-14.151678085327148,25.57073974609375,0.0
1063,-2.9130859375,-1.824951171875,-4.94775390625,503.0,-490.0,302.0,-17.632617950439453,28.9158992767334,0.0,89.71495056152344,-81.23393249511719,50.648780822753906,-14.139808654785156,25.55883026123047,0.0
1068,-2.916015625,-1.822265625,-4.955810546875,508.0,-498.0,297.0,-17.58405303955078,28.909799575805664,0.0,89.75373077392578,-81.2719497680664,50.671451568603516,-14.127239227294922,25.546316146850586,0.0
1073,-2.91796875,-1.828125,-4.946533203125,493.0,-493.0,281.0,-17.65726089477539,28.956741333007812,0.0,89.79136657714844,-81.30958557128906,50.692901611328125,-14.11640739440918,25.53458595275879,0.0
1078,-2.9208984375,-1.821533203125,-4.950927734375,498.0,-463.0,304.0,-17.582380294799805,28.972623825073242,0.0,89.82938385009766,-81.34493255615234,50.71610641479492,-14.1046724319458,25.525293350219727,0.0
1083,-2.914306640625,-1.818603515625,-4.953369140625,504.0,-482.0,283.0,-17.559402465820312,28.911911010742188,0.0,89.86785888671875,-81.38172912597656,50.737709045410156,-14.09235668182373,25.51413345336914,0.0
1088,-2.9169921875,-1.828125,-4.947998046875,488.0,-505.0,291.0,-17.655054092407227,28.942296981811523,0.0,89.90511322021484,-81.42028045654297,50.75992202758789,-14.082019805908203,25.501502990722656,0.0
1093,-2.91943359375,-1.8173828125,-4.950927734375,494.0,-501.0,279.0,-17.546911239624023,28.96703338623047,0.0,89.94282531738281,-81.45852661132812,50.781219482421875,-14.070455551147461,25.489412307739258,0.0
1098,-2.917236328125,-1.82080078125,-4.947021484375,512.0,-498.0,281.0,-17.590749740600586,28.960206985473633,0.0,89.9819107055664,-81.49654388427734,50.802669525146484,-14.057899475097656,25.477548599243164,0.0
1103,-2.918701171875,-1.824951171875,-4.950927734375,514.0,-459.0,303.0,-17.61654281616211,28.94892120361328,0.0,90.02114868164062,-81.53158569335938,50.82579803466797,-14.04543685913086,25.468605041503906,0.0
1108,-2.912353515625,-1.827880859375,-4.9482421875,507.0,-482.0,314.0,-17.659025192260742,28.903032302856445,0.0,90.05985260009766,-81.5683822631836,50.84976577758789,-14.033873558044434,25.457603454589844,0.0
1113,-2.919677734375,-1.824462890625,-4.958251953125,510.0,-491.0,316.0,-17.592575073242188,28.926231384277344,0.0,90.09878540039062,-81.60586547851562,50.87388610839844,-14.021635055541992,25.446136474609375,0.0
1118,-2.9150390625,-1.827392578125,-4.954833984375,498.0,-499.0,292.0,-17.63431167602539,28.89775276184082,0.0,90.13680267333984,-81.64395904541016,50.896175384521484,-14.010666847229004,25.43389892578125,0.0
1123,-2.916748046875,-1.821533203125,-4.95263671875,489.0,-509.0,314.0,-17.584203720092773,28.930736541748047,0.0,90.17413330078125,-81.68281555175781,50.920143127441406,-14.000052452087402,25.421201705932617,0.0
1128,-2.91748046875,-1.819091796875,-4.95263671875,491.0,-476.0,299.0,-17.561019897460938,28.94070053100586,0.0,90.21161651611328,-81.71915435791016,50.94296646118164,-13.989154815673828,25.411134719848633,0.0
1133,-2.915283203125,-1.823974609375,-4.951904296875,500.0,-482.0,301.0,-17.610267639160156,28.917837142944336,0.0,90.24978637695312,-81.75595092773438,50.9659423828125,-13.977981567382812,25.400480270385742,0.0
1138,-2.9189453125,-1.82568359375,-4.953125,496.0,-510.0,296.0,-17.61737632751465,28.9403076171875,0.0,90.28765106201172,-81.79488372802734,50.9885368347168,-13.967208862304688,25.38791275024414,0.0
1143,-2.915283203125,-1.82421875,-4.9560546875,520.0,-496.0,299.0,-17.60219955444336,28.899560928344727,0.0,90.32734680175781,-81.83274841308594,51.01136016845703,-13.954547882080078,25.376163482666016,0.0
1149,-2.917236328125,-1.822509765625,-4.951171875,516.0,-511.0,314.0,-17.595962524414062,28.93956756591797,0.0,90.3746109008789,-81.87955474853516,51.040122985839844,-13.934452056884766,25.355947494506836,0.0
1154,-2.91796875,-1.8271484375,-4.95458984375,513.0,-490.0,316.0,-17.628433227539062,28.923547744750977,0.0,90.41377258300781,-81.91696166992188,51.06424331665039,-13.922752380371094,25.345060348510742,0.0
1159,-2.916748046875,-1.82373046875,-4.955810546875,496.0,-488.0,309.0,-17.596250534057617,28.91356658935547,0.0,90.4516372680664,-81.95421600341797,51.08782958984375,-13.912153244018555,25.33429718017578,0.0
1164,-2.915771484375,-1.824462890625,-4.94921875,491.0,-473.0,299.0,-17.620634078979492,28.932706832885742,0.0,90.48912048339844,-81.99032592773438,51.110652923583984,-13.902153968811035,25.32485580444336,0.0
1169,-2.917724609375,-1.8232421875,-4.944580078125,513.0,-488.0,324.0,-17.61821746826172,28.97093391418457,0.0,90.52828216552734,-82.02758026123047,51.1353874206543,-13.890506744384766,25.314590454101562,0.0
1174,-2.91796875,-1.824462890625,-4.9560546875,504.0,-497.0,307.0,-17.60049819946289,28.921499252319336,0.0,90.56675720214844,-82.06552124023438,51.15882110595703,-13.879462242126465,25.303321838378906,0.0
1179,-2.91552734375,-1.818115234375,-4.955078125,507.0,-476.0,290.0,-17.548980712890625,28.915470123291016,0.0,90.60546112060547,-82.10186004638672,51.18095779418945,-13.867859840393066,25.293649673461914,0.0
1184,-2.916748046875,-1.822509765625,-4.95458984375,514.0,-484.0,300.0,-17.58821678161621,28.920764923095703,0.0,90.64469909667969,-82.13880920410156,51.203857421875,-13.856062889099121,25.283445358276367,0.0
1189,-2.91796875,-1.826171875,-4.9619140625,507.0,-500.0,302.0,-17.601465225219727,28.8935604095459,0.0,90.68340301513672,-82.1769790649414,51.22690963745117,-13.844944953918457,25.27187156677246,0.0
1194,-2.9150390625,-1.82177734375,-4.95166015625,493.0,-487.0,307.0,-17.59132194519043,28.920347213745117,0.0,90.72103881835938,-82.21415710449219,51.250343322753906,-13.834860801696777,25.26152992248535,0.0
1199,-2.9150390625,-1.821044921875,-4.952880859375,478.0,-500.0,296.0,-17.5816650390625,28.916244506835938,0.0,90.75753021240234,-82.25232696533203,51.2729377746582,-13.825883865356445,25.250215530395508,0.0
1204,-2.91748046875,-1.82666015625,-4.952392578125,499.0,-480.0,312.0,-17.630170822143555,28.929737091064453,0.0,90.79562377929688,-82.28897094726562,51.2967529296875,-13.815699577331543,25.240564346313477,0.0
1209,-2.915283203125,-1.82421875,-4.961181640625,505.0,-475.0,296.0,-17.589513778686523,28.87748908996582,0.0,90.83417510986328,-82.32523345947266,51.3193473815918,-13.80480670928955,25.230953216552734,0.0
1214,-2.918212890625,-1.822998046875,-4.95654296875,491.0,-487.0,304.0,-17.585676193237305,28.923748016357422,0.0,90.87165832519531,-82.36241149902344,51.342552185058594,-13.79499340057373,25.22080421447754,0.0
1219,-2.915771484375,-1.825439453125,-4.95703125,506.0,-479.0,294.0,-17.61012077331543,28.897480010986328,0.0,90.91028594970703,-82.39897918701172,51.364994049072266,-13.784259796142578,25.21111488342285,0.0
1224,-2.9208984375,-1.82470703125,-4.959228515625,508.0,-494.0,306.0,-17.590593338012695,28.93177604675293,0.0,90.94906616210938,-82.43669128417969,51.38835144042969,-13.773280143737793,25.200576782226562,0.0
1229,-2.91943359375,-1.823974609375,-4.951904296875,501.0,-455.0,293.0,-17.60421371459961,28.952350616455078,0.0,90.98731231689453,-82.47142791748047,51.41071701049805,-13.76297664642334,25.193187713623047,0.0
1234,-2.914306640625,-1.822509765625,-4.95166015625,494.0,-492.0,314.0,-17.59902572631836,28.913089752197266,0.0,91.0250244140625,-82.50898742675781,51.43468475341797,-13.753210067749023,25.182735443115234,0.0
1239,-2.9189453125,-1.82373046875,-4.95361328125,491.0,-478.0,316.0,-17.598485946655273,28.94130516052246,0.0,91.06250762939453,-82.54547882080078,51.458805084228516,-13.743706703186035,25.17359161376953,0.0
1244,-2.917236328125,-1.823486328125,-4.9501953125,507.0,-485.0,279.0,-17.607229232788086,28.942230224609375,0.0,91.10121154785156,-82.58250427246094,51.4801025390625,-13.733092308044434,25.16396141052246,0.0
1249,-2.916015625,-1.824951171875,-4.951171875,506.0,-482.0,332.0,-17.61985969543457,28.925535202026367,0.0,91.13983917236328,-82.61930084228516,51.50544738769531,-13.722691535949707,25.154478073120117,0.0
1254,-2.921142578125,-1.82763671875,-4.955322265625,514.0,-496.0,300.0,-17.62640380859375,28.945987701416016,0.0,91.1790771484375,-82.65716552734375,51.52834701538086,-13.711775779724121,25.144121170043945,0.0
1259,-2.917236328125,-1.82373046875,-4.9560546875,494.0,-490.0,303.0,-17.594934463500977,28.916574478149414,0.0,91.21678924560547,-82.69457244873047,51.551475524902344,-13.70219898223877,25.134052276611328,0.0
1264,-2.91845703125,-1.8232421875,-4.943115234375,491.0,-457.0,277.0,-17.620777130126953,28.983362197875977,0.0,91.2542724609375,-82.72946166992188,51.5726203918457,-13.693075180053711,25.12700843811035,0.0
1269,-2.91796875,-1.822509765625,-4.957275390625,500.0,-508.0,298.0,-17.57979965209961,28.919334411621094,0.0,91.29244232177734,-82.76824188232422,51.595367431640625,-13.683012962341309,25.115663528442383,0.0
1274,-2.91455078125,-1.821533203125,-4.94677734375,519.0,-479.0,296.0,-17.60191535949707,28.937747955322266,0.0,91.33206176757812,-82.8048095703125,51.61796188354492,-13.671712875366211,25.106700897216797,0.0
1279,-2.91650390625,-1.8193359375,-4.94970703125,489.0,-484.0,299.0,-17.571895599365234,28.944839477539062,0.0,91.36939239501953,-82.84175872802734,51.640785217285156,-13.662525177001953,25.097448348999023,0.0
1285,-2.917724609375,-1.825927734375,-4.952392578125,520.0,-467.0,285.0,-17.62318229675293,28.93292999267578,0.0,91.41702270507812,-82.88453674316406,51.666893005371094,-13.643588066101074,25.082435607910156,0.0
1290,-2.91748046875,-1.828369140625,-4.95263671875,488.0,-492.0,315.0,-17.645036697387695,28.925966262817383,0.0,91.45427703857422,-82.9220962524414,51.69093704223633,-13.635221481323242,25.072635650634766,0.0
1295,-2.915771484375,-1.821044921875,-4.951904296875,486.0,-495.0,296.0,-17.58301544189453,28.926549911499023,0.0,91.49137878417969,-82.95988464355469,51.713531494140625,-13.626594543457031,25.06265640258789,0.0
1300,-2.91796875,-1.82421875,-4.951171875,510.0,-485.0,288.0,-17.610374450683594,28.942943572998047,0.0,91.53031158447266,-82.99691009521484,51.73551559448242,-13.616378784179688,25.0535945892334,0.0
1305,-2.920166015625,-1.83056640625,-4.95458984375,496.0,-503.0,299.0,-17.65614891052246,28.936370849609375,0.0,91.56817626953125,-83.03530883789062,51.758338928222656,-13.607595443725586,25.043161392211914,0.0
1310,-2.912841796875,-1.82421875,-4.953125,501.0,-473.0,312.0,-17.613014221191406,28.891874313354492,0.0,91.6064224243164,-83.07141876220703,51.78215408325195,-13.598160743713379,25.034732818603516,0.0
1315,-2.917724609375,-1.826171875,-4.952880859375,513.0,-483.0,294.0,-17.624183654785156,28.930437088012695,0.0,91.64558410644531,-83.10829162597656,51.804595947265625,-13.587936401367188,25.025854110717773,0.0
1320,-2.92041015625,-1.82763671875,-4.9443359375,511.0,-496.0,324.0,-17.65471649169922,28.98731803894043,0.0,91.6845932006836,-83.14615631103516,51.82933044433594,-13.57812786102295,25.016433715820312,0.0
1325,-2.919921875,-1.82470703125,-4.95556640625,507.0,-490.0,290.0,-17.601070404052734,28.9394474029541,0.0,91.72329711914062,-83.18356323242188,51.85146713256836,-13.56828498840332,25.00716781616211,0.0
1330,-2.91845703125,-1.818359375,-4.95703125,505.0,-480.0,295.0,-17.542116165161133,28.931018829345703,0.0,91.76184844970703,-83.22020721435547,51.873985290527344,-13.558218955993652,24.998640060424805,0.0
1335,-2.914794921875,-1.826416015625,-4.9580078125,489.0,-469.0,313.0,-17.61795997619629,28.883607864379883,0.0,91.79917907714844,-83.25601196289062,51.89787673950195,-13.54995059967041,24.99064826965332,0.0
1340,-2.918701171875,-1.82470703125,-4.95263671875,523.0,-472.0,308.0,-17.61009979248047,28.941936492919922,0.0,91.83910369873047,-83.29204559326172,51.92138671875,-13.539082527160645,24.98287582397461,0.0
1345,-2.9140625,-1.822998046875,-4.953369140625,483.0,-453.0,283.0,-17.599573135375977,28.90291404724121,0.0,91.8759765625,-83.32662200927734,51.942989349365234,-13.531224250793457,24.976295471191406,0.0
1350,-2.91845703125,-1.826904296875,-4.951416015625,519.0,-488.0,290.0,-17.633377075195312,28.941679000854492,0.0,91.91559600830078,-83.36387634277344,51.965126037597656,-13.520907402038574,24.96735954284668,0.0
1355,-2.91845703125,-1.82666015625,-4.94970703125,498.0,-474.0,304.0,-17.63540267944336,28.949440002441406,0.0,91.95361328125,-83.40006256103516,51.98833084106445,-13.512245178222656,24.95958137512207,0.0
1360,-2.91845703125,-1.8232421875,-4.955322265625,507.0,-463.0,304.0,-17.59054946899414,28.930652618408203,0.0,91.99231719970703,-83.43540954589844,52.01153564453125,-13.502620697021484,24.95253562927246,0.0
1365,-2.915283203125,-1.82421875,-4.949951171875,497.0,-486.0,293.0,-17.617321014404297,28.925872802734375,0.0,92.03025817871094,-83.4725112915039,52.03390121459961,-13.493987083435059,24.94373893737793,0.0
1370,-2.91845703125,-1.82373046875,-4.947265625,512.0,-500.0,312.0,-17.61491584777832,28.964645385742188,0.0,92.06934356689453,-83.51068115234375,52.057716369628906,-13.484236717224121,24.934194564819336,0.0
1375,-2.91455078125,-1.82666015625,-4.94677734375,510.0,-483.0,282.0,-17.648387908935547,28.92958641052246,0.0,92.1082763671875,-83.54755401611328,52.07924270629883,-13.474920272827148,24.925735473632812,0.0
1380,-2.913818359375,-1.8203125,-4.954833984375,523.0,-508.0,272.0,-17.571975708007812,28.898826599121094,0.0,92.14820098876953,-83.58633422851562,52.100006103515625,-13.464122772216797,24.915203094482422,0.0
1385,-2.916748046875,-1.82568359375,-4.94921875,519.0,-508.0,316.0,-17.630266189575195,28.938888549804688,0.0,92.18782043457031,-83.62511444091797,52.12412643432617,-13.454092025756836,24.905004501342773,0.0
1390,-2.916259765625,-1.824462890625,-4.955810546875,486.0,-481.0,324.0,-17.603591918945312,28.90834617614746,0.0,92.22492218017578,-83.66183471679688,52.148860931396484,-13.44642448425293,24.896686553955078,0.0
1395,-2.917236328125,-1.82177734375,-4.95068359375,487.0,-479.0,295.0,-17.59053611755371,28.942838668823242,0.0,92.26210021972656,-83.69840240478516,52.17137908935547,-13.438620567321777,24.8887996673584,0.0
1400,-2.919189453125,-1.825927734375,-4.9560546875,501.0,-478.0,317.0,-17.611976623535156,28.929319381713867,0.0,92.30034637451172,-83.73489379882812,52.19557571411133,-13.429939270019531,24.88092803955078,0.0
1405,-2.918701171875,-1.825439453125,-4.95263671875,496.0,-481.0,317.0,-17.616731643676758,28.940773010253906,0.0,92.33821105957031,-83.77161407470703,52.21977233886719,-13.421709060668945,24.872943878173828,0.0
1410,-2.914306640625,-1.8212890625,-4.951416015625,510.0,-495.0,310.0,-17.58856964111328,28.916080474853516,0.0,92.37714385986328,-83.80940246582031,52.24343490600586,-13.412257194519043,24.86376190185547,0.0
1415,-2.919921875,-1.821533203125,-4.94677734375,497.0,-485.0,302.0,-17.594070434570312,28.982437133789062,0.0,92.41508483886719,-83.84642791748047,52.26648712158203,-13.403874397277832,24.855846405029297,0.0
1421,-2.9189453125,-1.82763671875,-4.9541015625,508.0,-491.0,307.0,-17.63263702392578,28.932992935180664,0.0,92.46161651611328,-83.89140319824219,52.29460906982422,-13.387346267700195,24.839801788330078,0.0
1426,-2.9189453125,-1.82177734375,-4.952880859375,500.0,-498.0,303.0,-17.582609176635742,28.947566986083984,0.0,92.49978637695312,-83.9294204711914,52.3177375793457,-13.378870010375977,24.83086395263672,0.0
1431,-2.9169921875,-1.823974609375,-4.9541015625,493.0,-481.0,286.0,-17.60233497619629,28.922574996948242,0.0,92.53742218017578,-83.96614074707031,52.339569091796875,-13.371100425720215,24.82308006286621,0.0
1436,-2.91650390625,-1.82421875,-4.94775390625,502.0,-471.0,300.0,-17.62098503112793,28.945510864257812,0.0,92.57574462890625,-84.0020980834961,52.36246871948242,-13.362812995910645,24.81624984741211,0.0
1441,-2.918212890625,-1.82421875,-4.94677734375,515.0,-485.0,309.0,-17.620906829833984,28.963947296142578,0.0,92.61505889892578,-84.03912353515625,52.38605499267578,-13.353575706481934,24.808513641357422,0.0
1446,-2.916015625,-1.81884765625,-4.95166015625,503.0,-482.0,288.0,-17.563352584838867,28.93311882019043,0.0,92.65345764160156,-84.07592010498047,52.40803909301758,-13.344890594482422,24.800823211669922,0.0
1451,-2.920166015625,-1.8271484375,-4.949462890625,512.0,-488.0,287.0,-17.637929916381836,28.963924407958984,0.0,92.69254302978516,-84.11317443847656,52.42994689941406,-13.336084365844727,24.792926788330078,0.0
1456,-2.9189453125,-1.823974609375,-4.947998046875,496.0,-491.0,305.0,-17.614599227905273,28.96515464782715,0.0,92.73040771484375,-84.1506576538086,52.45322799682617,-13.328369140625,24.784847259521484,0.0
1461,-2.9130859375,-1.823486328125,-4.94775390625,496.0,-478.0,288.0,-17.619340896606445,28.918230056762695,0.0,92.76827239990234,-84.18714904785156,52.47521209716797,-13.320720672607422,24.777462005615234,0.0
1466,-2.91357421875,-1.8271484375,-4.9541015625,498.0,-476.0,313.0,-17.636056900024414,28.889110565185547,0.0,92.80628967285156,-84.2234878540039,52.49910354614258,-13.313071250915527,24.77005958557129,0.0
1471,-2.915771484375,-1.822265625,-4.947509765625,476.0,-497.0,295.0,-17.604957580566406,28.943578720092773,0.0,92.8426284790039,-84.26142883300781,52.52162170410156,-13.306906700134277,24.761478424072266,0.0
1476,-2.916015625,-1.820068359375,-4.9560546875,513.0,-458.0,296.0,-17.563552856445312,28.912227630615234,0.0,92.88179016113281,-84.29639434814453,52.54421615600586,-13.297672271728516,24.75567626953125,0.0
1481,-2.914306640625,-1.823486328125,-4.953125,518.0,-488.0,296.0,-17.604246139526367,28.905223846435547,0.0,92.92133331298828,-84.33364868164062,52.566810607910156,-13.2883882522583,24.74757194519043,0.0
1486,-2.917236328125,-1.82470703125,-4.951416015625,526.0,-483.0,315.0,-17.61526107788086,28.935022354125977,0.0,92.96148681640625,-84.37052154541016,52.59085464477539,-13.278619766235352,24.740093231201172,0.0
1491,-2.9169921875,-1.823486328125,-4.951171875,516.0,-493.0,290.0,-17.605165481567383,28.935985565185547,0.0,93.0008773803711,-84.40815734863281,52.61299133300781,-13.269588470458984,24.731897354125977,0.0
1496,-2.916748046875,-1.823486328125,-4.958984375,489.0,-484.0,314.0,-17.58618927001953,28.900279998779297,0.0,93.0382080078125,-84.44510650634766,52.636959075927734,-13.262516975402832,24.72417449951172,0.0
1501,-2.9169921875,-1.822021484375,-4.954345703125,483.0,-512.0,304.0,-17.584043502807617,28.92462158203125,0.0,93.07508087158203,-84.48419189453125,52.66016387939453,-13.255916595458984,24.714534759521484,0.0
1506,-2.918701171875,-1.82421875,-4.9560546875,493.0,-513.0,309.0,-17.59722137451172,28.927974700927734,0.0,93.11271667480469,-84.52335357666016,52.68375015258789,-13.248677253723145,24.704893112182617,0.0
1511,-2.916015625,-1.8173828125,-4.953125,483.0,-495.0,314.0,-17.546457290649414,28.92911720275879,0.0,93.14958953857422,-84.56114196777344,52.70771789550781,-13.241876602172852,24.696672439575195,0.0
1516,-2.919677734375,-1.828857421875,-4.957275390625,483.0,-472.0,288.0,-17.63474464416504,28.9234619140625,0.0,93.18646240234375,-84.59717559814453,52.72970199584961,-13.235718727111816,24.690196990966797,0.0
1521,-2.916015625,-1.82421875,-4.9501953125,505.0,-495.0,311.0,-17.615646362304688,28.930912017822266,0.0,93.22501373291016,-84.63496398925781,52.753440856933594,-13.22778606414795,24.682056427001953,0.0
1526,-2.915771484375,-1.8251953125,-4.95458984375,506.0,-481.0,308.0,-17.613956451416016,28.908384323120117,0.0,93.26364135742188,-84.67168426513672,52.77695083618164,-13.219803810119629,24.674861907958984,0.0
1531,-2.91552734375,-1.826416015625,-4.952880859375,508.0,-482.0,299.0,-17.629600524902344,28.911779403686523,0.0,93.30242156982422,-84.70848083496094,52.799774169921875,-13.211816787719727,24.667648315429688,0.0
1536,-2.915771484375,-1.828125,-4.947265625,509.0,-492.0,307.0,-17.658660888671875,28.935302734375,0.0,93.34127807617188,-84.74604034423828,52.82320785522461,-13.203993797302246,24.659873962402344,0.0
1541,-2.911865234375,-1.82080078125,-4.95166015625,473.0,-485.0,320.0,-17.58709716796875,28.895483016967773,0.0,93.37738800048828,-84.78306579589844,52.84763717651367,-13.198441505432129,24.65239143371582,0.0
1546,-2.91552734375,-1.822998046875,-4.953369140625,516.0,-490.0,281.0,-17.59743881225586,28.915102005004883,0.0,93.41677856445312,-84.82047271728516,52.86908721923828,-13.189723014831543,24.644702911376953,0.0
1551,-2.918701171875,-1.827880859375,-4.955810546875,509.0,-489.0,284.0,-17.630966186523438,28.9232120513916,0.0,93.45563507080078,-84.85780334472656,52.89076614379883,-13.181812286376953,24.637184143066406,0.0
1557,-2.917724609375,-1.821044921875,-4.960693359375,513.0,-492.0,321.0,-17.558454513549805,28.904897689819336,0.0,93.50262451171875,-84.90287017822266,52.920169830322266,-13.165443420410156,24.621971130371094,0.0
1562,-2.914794921875,-1.82373046875,-4.952392578125,489.0,-454.0,291.0,-17.607559204101562,28.912057876586914,0.0,93.53995513916016,-84.9375228881836,52.9423828125,-13.15910816192627,24.617237091064453,0.0
1567,-2.917236328125,-1.828369140625,-4.9482421875,491.0,-485.0,313.0,-17.656301498413086,28.94288444519043,0.0,93.57743835449219,-84.97454833984375,52.96627426147461,-13.152984619140625,24.610382080078125,0.0
1572,-2.919189453125,-1.820556640625,-4.95947265625,497.0,-480.0,321.0,-17.554922103881836,28.9231014251709,0.0,93.6153793334961,-85.01119232177734,52.990779876708984,-13.145731925964355,24.60379981994629,0.0
1577,-2.914306640625,-1.821044921875,-4.957763671875,481.0,-467.0,296.0,-17.570655822753906,28.889102935791016,0.0,93.652099609375,-85.04684448242188,53.01337432861328,-13.139835357666016,24.597999572753906,0.0
1582,-2.91845703125,-1.82421875,-4.95751953125,502.0,-489.0,318.0,-17.593952178955078,28.919631958007812,0.0,93.69042205810547,-85.08417510986328,53.03764724731445,-13.132532119750977,24.59076690673828,0.0
1587,-2.91748046875,-1.825439453125,-4.9521484375,512.0,-490.0,326.0,-17.619722366333008,28.932729721069336,0.0,93.72950744628906,-85.12158203125,53.06253433227539,-13.124682426452637,24.58358383178711,0.0
1592,-2.917236328125,-1.825439453125,-4.950927734375,491.0,-466.0,293.0,-17.623104095458984,28.935964584350586,0.0,93.7669906616211,-85.15715789794922,53.08489990234375,-13.118487358093262,24.578277587890625,0.0
1597,-2.919189453125,-1.822509765625,-4.95263671875,513.0,-469.0,293.0,-17.58949089050293,28.949487686157227,0.0,93.80615234375,-85.19296264648438,53.10726547241211,-13.110419273376465,24.572858810424805,0.0
1602,-2.915771484375,-1.822998046875,-4.9462890625,495.0,-480.0,297.0,-17.6146240234375,28.94768524169922,0.0,93.84394073486328,-85.22960662841797,53.12993621826172,-13.10392951965332,24.566614151000977,0.0
1607,-2.915283203125,-1.8232421875,-4.9462890625,485.0,-494.0,297.0,-17.617549896240234,28.943233489990234,0.0,93.88096618652344,-85.26731872558594,53.15260696411133,-13.098248481750488,24.559307098388672,0.0
1612,-2.914794921875,-1.825927734375,-4.955322265625,518.0,-499.0,301.0,-17.620197296142578,28.895944595336914,0.0,93.9205093383789,-85.30541229248047,53.17558288574219,-13.090107917785645,24.55133056640625,0.0
1617,-2.920166015625,-1.82568359375,-4.948974609375,484.0,-482.0,308.0,-17.62587547302246,28.968364715576172,0.0,93.95745849609375,-85.34220886230469,53.199092864990234,-13.084625244140625,24.545181274414062,0.0
1622,-2.914794921875,-1.826416015625,-4.954833984375,510.0,-493.0,319.0,-17.62582778930664,28.897274017333984,0.0,93.99639129638672,-85.37984466552734,53.223445892333984,-13.077194213867188,24.537738800048828,0.0
1627,-2.912841796875,-1.820556640625,-4.955810546875,511.0,-478.0,285.0,-17.573192596435547,28.886106491088867,0.0,94.035400390625,-85.41633605957031,53.245201110839844,-13.06936264038086,24.53139305114746,0.0
1632,-2.91748046875,-1.8271484375,-4.9482421875,480.0,-496.0,305.0,-17.644887924194336,28.946861267089844,0.0,94.0720443725586,-85.4542007446289,53.26848220825195,-13.064413070678711,24.52412986755371,0.0
1637,-2.914306640625,-1.82470703125,-4.94677734375,517.0,-488.0,314.0,-17.631044387817383,28.930662155151367,0.0,94.11151123046875,-85.491455078125,53.292449951171875,-13.056583404541016,24.517398834228516,0.0
1642,-2.916748046875,-1.820556640625,-4.956298828125,514.0,-510.0,311.0,-17.566307067871094,28.916492462158203,0.0,94.15074920654297,-85.53038787841797,53.31618881225586,-13.048576354980469,24.508935928344727,0.0
1647,-2.9140625,-1.823486328125,-4.951904296875,523.0,-477.0,310.0,-17.60762596130371,28.90845489501953,0.0,94.190673828125,-85.56680297851562,53.33985137939453,-13.040212631225586,24.502965927124023,0.0
1652,-2.917236328125,-1.826904296875,-4.955810546875,513.0,-478.0,301.0,-17.624267578125,28.91259002685547,0.0,94.2298355102539,-85.6032943725586,53.36282730102539,-13.032764434814453,24.49697494506836,0.0
1657,-2.91796875,-1.8232421875,-4.9580078125,500.0,-482.0,296.0,-17.584619522094727,28.91501808166504,0.0,94.26800537109375,-85.64009094238281,53.38542175292969,-13.026067733764648,24.490724563598633,0.0
1662,-2.92138671875,-1.82861328125,-4.946533203125,516.0,-486.0,299.0,-17.656675338745117,28.984384536743164,0.0,94.3073959350586,-85.67719268798828,53.40824508666992,-13.018684387207031,24.484676361083984,0.0
1667,-2.911865234375,-1.829833984375,-4.951416015625,482.0,-493.0,322.0,-17.669540405273438,28.882184982299805,0.0,94.34419250488281,-85.71482849121094,53.43282699584961,-13.014004707336426,24.477426528930664,0.0
1672,-2.915283203125,-1.819091796875,-4.94677734375,494.0,-476.0,319.0,-17.578710556030273,28.947725296020508,0.0,94.38190460205078,-85.75116729736328,53.45718002319336,-13.0078125,24.471952438354492,0.0
1677,-2.9130859375,-1.825439453125,-4.952880859375,505.0,-469.0,307.0,-17.62432098388672,28.89301872253418,0.0,94.42045593261719,-85.78697204589844,53.480613708496094,-13.001128196716309,24.466659545898438,0.0
1682,-2.91845703125,-1.827880859375,-4.95068359375,522.0,-473.0,306.0,-17.644033432006836,28.943283081054688,0.0,94.4603042602539,-85.82308197021484,53.503971099853516,-12.99332332611084,24.4614315032959,0.0
1687,-2.91650390625,-1.819091796875,-4.94921875,519.0,-471.0,312.0,-17.570890426635742,28.947336196899414,0.0,94.49992370605469,-85.85903930664062,53.52778625488281,-12.985285758972168,24.45640754699707,0.0
1693,-2.915771484375,-1.822021484375,-4.961181640625,497.0,-482.0,278.0,-17.56892204284668,28.885021209716797,0.0,94.54544830322266,-85.90319061279297,53.553253173828125,-12.9714994430542,24.442922592163086,0.0
1698,-2.917724609375,-1.832763671875,-4.95703125,494.0,-490.0,303.0,-17.673532485961914,28.90207862854004,0.0,94.58316040039062,-85.94059753417969,53.57638168334961,-12.96627426147461,24.436336517333984,0.0
1703,-2.91455078125,-1.823974609375,-4.951904296875,501.0,-462.0,332.0,-17.61133575439453,28.9117431640625,0.0,94.62140655517578,-85.97586822509766,53.60172653198242,-12.960115432739258,24.43197250366211,0.0
1708,-2.914306640625,-1.82275390625,-4.952392578125,509.0,-469.0,291.0,-17.599424362182617,28.909543991088867,0.0,94.66026306152344,-86.01167297363281,53.623939514160156,-12.95329761505127,24.427080154418945,0.0
1713,-2.9189453125,-1.828125,-4.958984375,507.0,-497.0,278.0,-17.624956130981445,28.911184310913086,0.0,94.69896697998047,-86.04961395263672,53.64516067504883,-12.946840286254883,24.42009735107422,0.0
1718,-2.91748046875,-1.823486328125,-4.952392578125,508.0,-469.0,308.0,-17.601430892944336,28.93478012084961,0.0,94.73774719238281,-86.08541870117188,53.668670654296875,-12.940176963806152,24.415433883666992,0.0
1723,-2.91552734375,-1.822021484375,-4.95263671875,522.0,-483.0,308.0,-17.590404510498047,28.919809341430664,0.0,94.77759552001953,-86.1222915649414,53.69218063354492,-12.93241024017334,24.409626007080078,0.0
1728,-2.9140625,-1.824462890625,-4.95751953125,492.0,-499.0,279.0,-17.60256004333496,28.882713317871094,0.0,94.81515502929688,-86.16038513183594,53.713478088378906,-12.927041053771973,24.402379989624023,0.0
1733,-2.9169921875,-1.824462890625,-4.954833984375,488.0,-495.0,299.0,-17.604942321777344,28.918643951416016,0.0,94.85240936279297,-86.19817352294922,53.73630142211914,-12.922017097473145,24.395719528198242,0.0
1738,-2.9130859375,-1.822265625,-4.95751953125,499.0,-475.0,312.0,-17.58408546447754,28.878070831298828,0.0,94.8905029296875,-86.23443603515625,53.76011657714844,-12.916038513183594,24.39033317565918,0.0
1743,-2.91455078125,-1.824951171875,-4.954345703125,499.0,-477.0,298.0,-17.6141300201416,28.89967155456543,0.0,94.92859649658203,-86.2708511352539,53.78286361694336,-12.910293579101562,24.384967803955078,0.0
1748,-2.91357421875,-1.828857421875,-4.950439453125,507.0,-466.0,297.0,-17.66062355041504,28.90216636657715,0.0,94.96730041503906,-86.30642700195312,53.80553436279297,-12.904287338256836,24.380477905273438,0.0
1753,-2.915771484375,-1.821533203125,-4.949951171875,521.0,-478.0,292.0,-17.592273712158203,28.934202194213867,0.0,95.00707244873047,-86.3429183959961,53.827823638916016,-12.896781921386719,24.375316619873047,0.0
1758,-2.91796875,-1.822021484375,-4.952880859375,503.0,-482.0,328.0,-17.586244583129883,28.93906021118164,0.0,95.04547119140625,-86.37971496582031,53.85286331176758,-12.890640258789062,24.369909286499023,0.0
1763,-2.9169921875,-1.820556640625,-4.954345703125,494.0,-483.0,296.0,-17.570777893066406,28.926944732666016,0.0,95.08318328857422,-86.41658782958984,53.875457763671875,-12.885106086730957,24.364368438720703,0.0
1768,-2.91552734375,-1.82666015625,-4.944580078125,515.0,-502.0,300.0,-17.652416229248047,28.94719886779785,0.0,95.12249755859375,-86.45491027832031,53.89835739135742,-12.878562927246094,24.357553482055664,0.0
1773,-2.91357421875,-1.820556640625,-4.94482421875,511.0,-501.0,296.0,-17.599327087402344,28.939605712890625,0.0,95.16150665283203,-86.49315643310547,53.92095184326172,-12.871994972229004,24.350797653198242,0.0
1778,-2.9150390625,-1.822021484375,-4.952880859375,492.0,-470.0,292.0,-17.590513229370117,28.914695739746094,0.0,95.19906616210938,-86.52903747558594,53.943241119384766,-12.866840362548828,24.34625816345215,0.0
1783,-2.91748046875,-1.831787109375,-4.947998046875,501.0,-481.0,294.0,-17.687501907348633,28.940515518188477,0.0,95.23731231689453,-86.56575775146484,53.96568298339844,-12.861688613891602,24.341079711914062,0.0
1788,-2.916259765625,-1.8251953125,-4.9501953125,521.0,-484.0,306.0,-17.624135971069336,28.9313907623291,0.0,95.27708435058594,-86.60270690917969,53.98904037475586,-12.854613304138184,24.33563804626465,0.0
1793,-2.91650390625,-1.824462890625,-4.95068359375,501.0,-490.0,285.0,-17.615934371948242,28.932479858398438,0.0,95.3153305053711,-86.6401138305664,54.01079559326172,-12.84903621673584,24.329774856567383,0.0
1798,-2.915771484375,-1.826904296875,-4.9541015625,500.0,-483.0,299.0,-17.630640029907227,28.907773971557617,0.0,95.35350036621094,-86.67698669433594,54.03361892700195,-12.843663215637207,24.324304580688477,0.0
1803,-2.91455078125,-1.824462890625,-4.955810546875,488.0,-521.0,316.0,-17.606081008911133,28.894136428833008,0.0,95.39075469970703,-86.71675872802734,54.0577392578125,-12.839058876037598,24.315889358520508,0.0
1808,-2.915283203125,-1.815673828125,-4.958251953125,499.0,-482.0,299.0,-17.51938819885254,28.903610229492188,0.0,95.42884826660156,-86.75355529785156,54.080562591552734,-12.833052635192871,24.3105411529541,0.0
1813,-2.91748046875,-1.826416015625,-4.946533203125,515.0,-476.0,317.0,-17.642494201660156,28.955406188964844,0.0,95.4681625366211,-86.7898941040039,54.104759216308594,-12.826700210571289,24.306028366088867,0.0
1818,-2.921142578125,-1.82470703125,-4.949462890625,504.0,-492.0,300.0,-17.61439323425293,28.97593116760254,0.0,95.50663757324219,-86.82745361328125,54.12765884399414,-12.821024894714355,24.300460815429688,0.0
1823,-2.918701171875,-1.82177734375,-4.952880859375,512.0,-472.0,293.0,-17.582965850830078,28.945537567138672,0.0,95.54572296142578,-86.86348724365234,54.1500244140625,-12.814557075500488,24.296234130859375,0.0
1829,-2.919189453125,-1.826904296875,-4.95556640625,496.0,-517.0,290.0,-17.62202262878418,28.929872512817383,0.0,95.59115600585938,-86.91084289550781,54.17658996582031,-12.802175521850586,24.280757904052734,0.0
1834,-2.915771484375,-1.826416015625,-4.952392578125,511.0,-484.0,286.0,-17.630455017089844,28.915912628173828,0.0,95.63016510009766,-86.94779205322266,54.198421478271484,-12.796308517456055,24.27562141418457,0.0
1839,-2.912353515625,-1.822021484375,-4.95068359375,488.0,-471.0,300.0,-17.59986686706543,28.90182113647461,0.0,95.66741943359375,-86.98374938964844,54.22132110595703,-12.792006492614746,24.27140235900879,0.0
1844,-2.915283203125,-1.8271484375,-4.958984375,486.0,-454.0,300.0,-17.621458053588867,28.88230323791504,0.0,95.70452117919922,-87.01840209960938,54.24422073364258,-12.7880220413208,24.268356323242188,0.0
1849,-2.916259765625,-1.828857421875,-4.950927734375,501.0,-470.0,301.0,-17.65548324584961,28.92240333557129,0.0,95.74276733398438,-87.05428314208984,54.26719665527344,-12.783147811889648,24.264381408691406,0.0
1854,-2.911865234375,-1.827392578125,-4.955322265625,540.0,-474.0,304.0,-17.637731552124023,28.869251251220703,0.0,95.78398895263672,-87.09046936035156,54.290401458740234,-12.775218963623047,24.2597599029541,0.0
1859,-2.9189453125,-1.822021484375,-4.950927734375,514.0,-467.0,310.0,-17.589651107788086,28.955610275268555,0.0,95.82322692871094,-87.1261215209961,54.314064025878906,-12.768978118896484,24.256277084350586,0.0
1864,-2.918212890625,-1.8251953125,-4.959228515625,514.0,-491.0,304.0,-17.598918914794922,28.908693313598633,0.0,95.86246490478516,-87.16360473632812,54.3372688293457,-12.762832641601562,24.250669479370117,0.0
1869,-2.916259765625,-1.82470703125,-4.950927734375,498.0,-475.0,292.0,-17.617897033691406,28.92900848388672,0.0,95.90048217773438,-87.19986724853516,54.35955810546875,-12.758061408996582,24.246440887451172,0.0
1874,-2.91552734375,-1.8212890625,-4.95556640625,488.0,-476.0,316.0,-17.57652473449707,28.90833854675293,0.0,95.93773651123047,-87.2362060546875,54.3836784362793,-12.753789901733398,24.242015838623047,0.0
1879,-2.916015625,-1.824951171875,-4.950439453125,516.0,-500.0,293.0,-17.621675491333008,28.928695678710938,0.0,95.97712707519531,-87.27437591552734,54.406044006347656,-12.747720718383789,24.235929489135742,0.0
1884,-2.9169921875,-1.828369140625,-4.95556640625,506.0,-488.0,287.0,-17.638484954833984,28.909284591674805,0.0,96.01575469970703,-87.31163024902344,54.42795181274414,-12.74255657196045,24.230653762817383,0.0
1889,-2.916259765625,-1.8193359375,-4.9560546875,506.0,-494.0,298.0,-17.556564331054688,28.915416717529297,0.0,96.05438232421875,-87.3493423461914,54.45069885253906,-12.736861228942871,24.224990844726562,0.0
1894,-2.91455078125,-1.82421875,-4.95166015625,503.0,-484.0,310.0,-17.614152908325195,28.91240882873535,0.0,96.09278106689453,-87.38629150390625,54.474361419677734,-12.731813430786133,24.220094680786133,0.0
1899,-2.91357421875,-1.8251953125,-4.953857421875,506.0,-502.0,293.0,-17.618976593017578,28.89326286315918,0.0,96.13140869140625,-87.42461395263672,54.496726989746094,-12.72659683227539,24.213729858398438,0.0
1904,-2.912109375,-1.8232421875,-4.951171875,524.0,-502.0,319.0,-17.610076904296875,28.8957462310791,0.0,96.1714096069336,-87.46293640136719,54.521080017089844,-12.71998119354248,24.207416534423828,0.0
1909,-2.914794921875,-1.82470703125,-4.950439453125,506.0,-486.0,330.0,-17.621246337890625,28.918928146362305,0.0,96.21003723144531,-87.50003814697266,54.54627227783203,-12.714841842651367,24.20250701904297,0.0
1914,-2.91845703125,-1.822509765625,-4.94921875,519.0,-481.0,313.0,-17.599016189575195,28.958152770996094,0.0,96.2496566772461,-87.53675842285156,54.57016372680664,-12.70859146118164,24.198266983032227,0.0
1919,-2.91943359375,-1.823486328125,-4.94775390625,495.0,-494.0,299.0,-17.610065460205078,28.971046447753906,0.0,96.28744506835938,-87.57447052001953,54.592987060546875,-12.704269409179688,24.19314956665039,0.0
1924,-2.91552734375,-1.822998046875,-4.952392578125,489.0,-501.0,298.0,-17.599857330322266,28.919313430786133,0.0,96.32477569580078,-87.61271667480469,54.6157341003418,-12.70035457611084,24.187175750732422,0.0
1929,-2.91796875,-1.82568359375,-4.955322265625,512.0,-502.0,322.0,-17.613359451293945,28.922719955444336,0.0,96.36386108398438,-87.65103912353516,54.640316009521484,-12.694804191589355,24.181182861328125,0.0
1934,-2.920166015625,-1.8232421875,-4.94873046875,481.0,-491.0,314.0,-17.604366302490234,28.97330665588379,0.0,96.40058135986328,-87.68852233886719,54.664283752441406,-12.691573143005371,24.1763973236084,0.0
1939,-2.91748046875,-1.81396484375,-4.951904296875,500.0,-484.0,272.0,-17.516361236572266,28.95198631286621,0.0,96.43875122070312,-87.72547149658203,54.6850471496582,-12.686319351196289,24.17202377319336,0.0
1944,-2.91748046875,-1.822021484375,-4.949462890625,494.0,-483.0,294.0,-17.595413208007812,28.949752807617188,0.0,96.4764633178711,-87.76234436035156,54.707489013671875,-12.682082176208496,24.16773223876953,0.0
1949,-2.917724609375,-1.82373046875,-4.953125,499.0,-479.0,308.0,-17.601472854614258,28.933263778686523,0.0,96.51455688476562,-87.79891204833984,54.73099899291992,-12.677528381347656,24.163652420043945,0.0
1954,-2.917236328125,-1.828125,-4.947998046875,492.0,-472.0,295.0,-17.65469741821289,28.94432830810547,0.0,96.55211639404297,-87.83494567871094,54.753517150878906,-12.673887252807617,24.160200119018555,0.0
1959,-2.913330078125,-1.822265625,-4.95166015625,483.0,-478.0,292.0,-17.598237991333008,28.905351638793945,0.0,96.5889892578125,-87.8714370727539,54.77580642700195,-12.670563697814941,24.156044006347656,0.0
1965,-2.917236328125,-1.82861328125,-4.95556640625,498.0,-483.0,299.0,-17.640336990356445,28.910926818847656,0.0,96.62700653076172,-87.90830993652344,54.79862976074219,-12.666401863098145,24.151567459106445,0.0
1970,-2.9150390625,-1.820068359375,-4.94873046875,498.0,-483.0,302.0,-17.583086013793945,28.935705184936523,0.0,96.67262268066406,-87.95255279541016,54.8262939453125,-12.654417991638184,24.14004898071289,0.0
1975,-2.911376953125,-1.821044921875,-4.955078125,486.0,-476.0,308.0,-17.581558227539062,28.876300811767578,0.0,96.70972442626953,-87.9888916015625,54.84980392456055,-12.650958061218262,24.13605499267578,0.0
1980,-2.917236328125,-1.824462890625,-4.9521484375,508.0,-467.0,287.0,-17.611236572265625,28.932252883911133,0.0,96.74850463867188,-88.02454376220703,54.87171173095703,-12.646045684814453,24.133140563964844,0.0
1985,-2.919189453125,-1.823974609375,-4.95361328125,508.0,-468.0,282.0,-17.600339889526367,28.942947387695312,0.0,96.78728485107422,-88.06027221679688,54.89323806762695,-12.641083717346191,24.130233764648438,0.0
1990,-2.9150390625,-1.8232421875,-4.954345703125,501.0,-501.0,314.0,-17.597944259643555,28.906442642211914,0.0,96.82553100585938,-88.09851837158203,54.917205810546875,-12.636661529541016,24.124588012695312,0.0
1995,-2.916015625,-1.8291015625,-4.954833984375,492.0,-474.0,313.0,-17.648353576660156,28.903156280517578,0.0,96.86309051513672,-88.13470458984375,54.941097259521484,-12.633283615112305,24.12099838256836,0.0
2000,-2.9169921875,-1.829345703125,-4.95068359375,495.0,-469.0,300.0,-17.659439086914062,28.928770065307617,0.0,96.90087890625,-88.1705093383789,54.96399688720703,-12.629768371582031,24.117977142333984,0.0
2005,-2.917236328125,-1.8212890625,-4.961181640625,515.0,-479.0,285.0,-17.56016731262207,28.898353576660156,0.0,96.94019317626953,-88.20707702636719,54.98575210571289,-12.624079704284668,24.114002227783203,0.0
2010,-2.91650390625,-1.82763671875,-4.951171875,506.0,-482.0,293.0,-17.64346694946289,28.925325393676758,0.0,96.97882080078125,-88.2438735961914,55.00811767578125,-12.619668006896973,24.110002517700195,0.0
2015,-2.920654296875,-1.833251953125,-4.94287109375,528.0,-509.0,295.0,-17.7088623046875,28.9866943359375,0.0,97.01912689208984,-88.28273010253906,55.030635833740234,-12.614052772521973,24.10439109802246,0.0
2020,-2.9130859375,-1.819091796875,-4.95361328125,498.0,-474.0,314.0,-17.564998626708984,28.89992904663086,0.0,97.05714416503906,-88.31891632080078,55.054603576660156,-12.609768867492676,24.10087776184082,0.0
2025,-2.9169921875,-1.82568359375,-4.9521484375,499.0,-495.0,311.0,-17.62264633178711,28.928281784057617,0.0,97.0952377319336,-88.35670471191406,55.07834243774414,-12.605819702148438,24.095977783203125,0.0
2030,-2.92138671875,-1.82763671875,-4.9501953125,507.0,-491.0,317.0,-17.638750076293945,28.970130920410156,0.0,97.13394165039062,-88.3941879272461,55.1025390625,-12.601391792297363,24.091690063476562,0.0
2035,-2.919189453125,-1.8203125,-4.957275390625,483.0,-505.0,317.0,-17.558134078979492,28.932958602905273,0.0,97.17081451416016,-88.4327392578125,55.12673568725586,-12.598261833190918,24.086111068725586,0.0
2040,-2.916748046875,-1.8203125,-4.953125,490.0,-487.0,296.0,-17.571937561035156,28.930566787719727,0.0,97.20822143554688,-88.46991729736328,55.149330139160156,-12.594707489013672,24.081911087036133,0.0
2045,-2.919921875,-1.824951171875,-4.959716796875,510.0,-485.0,295.0,-17.593015670776367,28.921175003051758,0.0,97.24715423583984,-88.50694274902344,55.17184829711914,-12.58979606628418,24.07781982421875,0.0
2050,-2.916748046875,-1.82470703125,-4.957763671875,520.0,-477.0,301.0,-17.600255966186523,28.903602600097656,0.0,97.28684997558594,-88.5433578491211,55.19482421875,-12.584200859069824,24.07423973083496,0.0
2055,-2.9111328125,-1.82373046875,-4.9560546875,505.0,-474.0,318.0,-17.60382080078125,28.86581039428711,0.0,97.32540130615234,-88.57954406738281,55.21909713745117,-12.579797744750977,24.070648193359375,0.0
2060,-2.918701171875,-1.828125,-4.953125,483.0,-509.0,305.0,-17.63983154296875,28.934396743774414,0.0,97.36227416992188,-88.61840057373047,55.24237823486328,-12.5773286819458,24.064882278442383,0.0
2065,-2.9130859375,-1.826171875,-4.952392578125,500.0,-488.0,308.0,-17.632165908813477,28.893959045410156,0.0,97.40044403076172,-88.65565490722656,55.26588821411133,-12.573527336120605,24.060466766357422,0.0
2070,-2.9189453125,-1.82421875,-4.9541015625,491.0,-494.0,308.0,-17.60169792175293,28.938425064086914,0.0,97.43792724609375,-88.69336700439453,55.289398193359375,-12.570221900939941,24.055919647216797,0.0
2075,-2.91796875,-1.827392578125,-4.951171875,490.0,-476.0,287.0,-17.639116287231445,28.937894821166992,0.0,97.47533416748047,-88.72970581054688,55.31130599975586,-12.567259788513184,24.052759170532227,0.0
2080,-2.921875,-1.82373046875,-4.95068359375,492.0,-481.0,296.0,-17.601459503173828,28.978300094604492,0.0,97.51289367675781,-88.76642608642578,55.333900451660156,-12.563904762268066,24.04950523376465,0.0
2085,-2.9169921875,-1.823974609375,-4.95166015625,507.0,-473.0,295.0,-17.608379364013672,28.933103561401367,0.0,97.55159759521484,-88.80253601074219,55.35641860961914,-12.559475898742676,24.04656982421875,0.0
2090,-2.916015625,-1.8212890625,-4.955322265625,481.0,-469.0,298.0,-17.576417922973633,28.9134521484375,0.0,97.58831787109375,-88.83834075927734,55.37916564941406,-12.556825637817383,24.043819427490234,0.0
2095,-2.91259765625,-1.826904296875,-4.958984375,490.0,-486.0,295.0,-17.623159408569336,28.860361099243164,0.0,97.62572479248047,-88.87544250488281,55.40168380737305,-12.55381965637207,24.039432525634766,0.0
2101,-2.92138671875,-1.82568359375,-4.956298828125,495.0,-475.0,302.0,-17.605958938598633,28.946908950805664,0.0,97.66351318359375,-88.91170501708984,55.42473602294922,-12.550332069396973,24.036487579345703,0.0
2106,-2.915283203125,-1.823486328125,-4.950439453125,498.0,-476.0,291.0,-17.609474182128906,28.924930572509766,0.0,97.7091293334961,-88.95530700683594,55.451393127441406,-12.539205551147461,24.026206970214844,0.0
2111,-2.91357421875,-1.82421875,-4.94580078125,503.0,-474.0,282.0,-17.63011360168457,28.9295597076416,0.0,97.74752807617188,-88.99149322509766,55.47291946411133,-12.535457611083984,24.023391723632812,0.0
2116,-2.917236328125,-1.8291015625,-4.951171875,501.0,-495.0,307.0,-17.655658721923828,28.9290828704834,0.0,97.78577423095703,-89.02928161621094,55.49635314941406,-12.532052040100098,24.018991470336914,0.0
2121,-2.914306640625,-1.822021484375,-4.95361328125,493.0,-492.0,300.0,-17.589767456054688,28.90544319152832,0.0,97.82341003417969,-89.06684112548828,55.51925277709961,-12.528822898864746,24.01468276977539,0.0
2126,-2.91943359375,-1.824951171875,-4.948486328125,503.0,-482.0,290.0,-17.621522903442383,28.965551376342773,0.0,97.86180877685547,-89.1036376953125,55.54138946533203,-12.525065422058105,24.011558532714844,0.0
2131,-2.9150390625,-1.8271484375,-4.952392578125,512.0,-486.0,324.0,-17.638158798217773,28.90865707397461,0.0,97.90089416503906,-89.14073944091797,55.566123962402344,-12.52075481414795,24.007761001586914,0.0
2136,-2.9150390625,-1.819580078125,-4.951904296875,503.0,-492.0,334.0,-17.57080841064453,28.922779083251953,0.0,97.93929290771484,-89.17829895019531,55.59162139892578,-12.516695022583008,24.003623962402344,0.0
2141,-2.919189453125,-1.822998046875,-4.944580078125,497.0,-488.0,284.0,-17.613861083984375,28.983510971069336,0.0,97.97723388671875,-89.2155532836914,55.61330032348633,-12.513400077819824,24.000219345092773,0.0
2146,-2.916259765625,-1.829833984375,-4.950439453125,498.0,-465.0,306.0,-17.665536880493164,28.92295265197754,0.0,98.01525115966797,-89.25105285644531,55.63665771484375,-12.510393142700195,23.998167037963867,0.0
2151,-2.91552734375,-1.82470703125,-4.9482421875,524.0,-485.0,305.0,-17.625625610351562,28.93450164794922,0.0,98.05525207519531,-89.28807830810547,55.65993881225586,-12.505159378051758,23.99468231201172,0.0
2156,-2.91796875,-1.823974609375,-4.9521484375,495.0,-464.0,297.0,-17.605745315551758,28.939117431640625,0.0,98.0930404663086,-89.32350158691406,55.68260955810547,-12.502018928527832,23.992839813232422,0.0
2161,-2.91845703125,-1.8291015625,-4.9482421875,503.0,-489.0,296.0,-17.66114616394043,28.95186996459961,0.0,98.13143920898438,-89.36083221435547,55.705204010009766,-12.49866008758545,23.989192962646484,0.0
2166,-2.919677734375,-1.82080078125,-4.955322265625,497.0,-503.0,303.0,-17.566667556762695,28.944669723510742,0.0,98.16938018798828,-89.39923095703125,55.72833251953125,-12.495134353637695,23.984455108642578,0.0
2171,-2.91552734375,-1.821533203125,-4.947265625,495.0,-498.0,292.0,-17.599279403686523,28.943767547607422,0.0,98.20716857910156,-89.43724822998047,55.7506217956543,-12.491997718811035,23.98011589050293,0.0
2176,-2.915283203125,-1.82373046875,-4.951416015625,512.0,-459.0,302.0,-17.60926628112793,28.920330047607422,0.0,98.24625396728516,-89.4722900390625,55.77367401123047,-12.487653732299805,23.97859764099121,0.0
2181,-2.916259765625,-1.8232421875,-4.9453125,490.0,-477.0,316.0,-17.61854362487793,28.95557975769043,0.0,98.28366088867188,-89.50870513916016,55.797794342041016,-12.485063552856445,23.9759578704834,0.0
2186,-2.91796875,-1.8232421875,-4.95068359375,521.0,-476.0,287.0,-17.602739334106445,28.946603775024414,0.0,98.32343292236328,-89.5450439453125,55.8197021484375,-12.480027198791504,23.973344802856445,0.0
2191,-2.91796875,-1.8251953125,-4.955810546875,516.0,-489.0,280.0,-17.607730865478516,28.921390533447266,0.0,98.36282348632812,-89.5823745727539,55.8410758972168,-12.475431442260742,23.969585418701172,0.0
2196,-2.915283203125,-1.828125,-4.949462890625,526.0,-482.0,314.0,-17.65391731262207,28.921762466430664,0.0,98.4029769897461,-89.61917114257812,55.86504364013672,-12.470413208007812,23.966379165649414,0.0
2201,-2.916259765625,-1.82080078125,-4.94921875,495.0,-481.0,297.0,-17.58673667907715,28.942590713500977,0.0,98.44076538085938,-89.65589141845703,55.88771438598633,-12.467321395874023,23.96340560913086,0.0
2206,-2.91650390625,-1.82373046875,-4.9560546875,491.0,-493.0,287.0,-17.59600257873535,28.910484313964844,0.0,98.4782485961914,-89.69352722167969,55.90962219238281,-12.464609146118164,23.959320068359375,0.0
2211,-2.919677734375,-1.82470703125,-4.947021484375,511.0,-480.0,281.0,-17.622583389282227,28.97429656982422,0.0,98.51725769042969,-89.73017120361328,55.93107223510742,-12.460573196411133,23.9566707611084,0.0
2216,-2.91650390625,-1.82080078125,-4.956787109375,483.0,-486.0,290.0,-17.567665100097656,28.911970138549805,0.0,98.55413055419922,-89.76727294921875,55.953208923339844,-12.458311080932617,23.95315933227539,0.0
2221,-2.9150390625,-1.82080078125,-4.953369140625,522.0,-488.0,290.0,-17.578245162963867,28.914525985717773,0.0,98.59397888183594,-89.80452728271484,55.975345611572266,-12.45317268371582,23.94953155517578,0.0
2226,-2.9169921875,-1.82763671875,-4.947265625,501.0,-473.0,306.0,-17.652450561523438,28.94623565673828,0.0,98.6322250366211,-89.84063720703125,55.99870300292969,-12.450154304504395,23.947275161743164,0.0
2231,-2.916015625,-1.823974609375,-4.9541015625,516.0,-497.0,292.0,-17.603757858276367,28.91445541381836,0.0,98.67161560058594,-89.87857818603516,56.020992279052734,-12.445685386657715,23.9429931640625,0.0
2237,-2.91650390625,-1.8203125,-4.9599609375,500.0,-474.0,313.0,-17.55540657043457,28.899066925048828,0.0,98.70978546142578,-89.91476440429688,56.044883728027344,-12.442130088806152,23.94037628173828,0.0
2242,-2.91650390625,-1.825439453125,-4.946533203125,487.0,-470.0,303.0,-17.635074615478516,28.948837280273438,0.0,98.75439453125,-89.95781707763672,56.07263946533203,-12.432829856872559,23.931379318237305,0.0
2247,-2.915283203125,-1.825927734375,-4.949951171875,511.0,-457.0,332.0,-17.632802963256836,28.923154830932617,0.0,98.79340362548828,-89.99270629882812,56.097984313964844,-12.429136276245117,23.930376052856445,0.0
2252,-2.91552734375,-1.826904296875,-4.94287109375,528.0,-490.0,278.0,-17.658876419067383,28.95418930053711,0.0,98.83370971679688,-90.03011322021484,56.119205474853516,-12.424346923828125,23.927080154418945,0.0
2257,-2.912353515625,-1.81884765625,-4.947998046875,483.0,-472.0,288.0,-17.57774543762207,28.918447494506836,0.0,98.8705825805664,-90.06614685058594,56.14118957519531,-12.422449111938477,23.924924850463867,0.0
2262,-2.916259765625,-1.8291015625,-4.95068359375,506.0,-492.0,306.0,-17.658300399780273,28.923067092895508,0.0,98.90921020507812,-90.10370635986328,56.164546966552734,-12.419356346130371,23.92129135131836,0.0
2267,-2.91552734375,-1.822509765625,-4.95556640625,504.0,-496.0,317.0,-17.58757781982422,28.906404495239258,0.0,98.94768524169922,-90.14157104492188,56.188743591308594,-12.415952682495117,23.917261123657227,0.0
2272,-2.91650390625,-1.82421875,-4.95361328125,484.0,-497.0,305.0,-17.60646629333496,28.92023277282715,0.0,98.98463439941406,-90.17951202392578,56.2120246887207,-12.414209365844727,23.91326904296875,0.0
2277,-2.916748046875,-1.825439453125,-4.952880859375,510.0,-492.0,312.0,-17.618976593017578,28.923480987548828,0.0,99.02356719970703,-90.21707153320312,56.23583984375,-12.410584449768066,23.909698486328125,0.0
2282,-2.916259765625,-1.820556640625,-4.951904296875,481.0,-484.0,318.0,-17.577878952026367,28.931385040283203,0.0,99.06028747558594,-90.25402069091797,56.26011276245117,-12.408900260925293,23.90680503845215,0.0
2287,-2.914794921875,-1.82177734375,-4.951416015625,538.0,-486.0,301.0,-17.592283248901367,28.919368743896484,0.0,99.10135650634766,-90.29112243652344,56.28308868408203,-12.402996063232422,23.90369415283203,0.0
2292,-2.91455078125,-1.822265625,-4.955078125,513.0,-477.0,305.0,-17.587997436523438,28.900774002075195,0.0,99.14051818847656,-90.3275375366211,56.30636978149414,-12.398991584777832,23.901155471801758,0.0
2297,-2.91650390625,-1.823486328125,-4.9521484375,523.0,-494.0,317.0,-17.60346031188965,28.92771339416504,0.0,99.1804428100586,-90.36524963378906,56.33056640625,-12.394354820251465,23.897520065307617,0.0
2302,-2.913818359375,-1.820556640625,-4.953369140625,518.0,-467.0,318.0,-17.577810287475586,28.904754638671875,0.0,99.21998596191406,-90.4009017944336,56.35483932495117,-12.389949798583984,23.895797729492188,0.0
2307,-2.91552734375,-1.82861328125,-4.9521484375,499.0,-476.0,299.0,-17.65131378173828,28.911439895629883,0.0,99.2580795288086,-90.43724060058594,56.377662658691406,-12.387503623962402,23.893444061279297,0.0
2312,-2.916015625,-1.825927734375,-4.94775390625,494.0,-477.0,308.0,-17.637184143066406,28.93872833251953,0.0,99.29579162597656,-90.4736557006836,56.40117263793945,-12.38535213470459,23.89120864868164,0.0
2317,-2.915771484375,-1.8193359375,-4.951416015625,502.0,-479.0,307.0,-17.568737030029297,28.931367874145508,0.0,99.33411407470703,-90.51022338867188,56.42460632324219,-12.382143020629883,23.888778686523438,0.0
2322,-2.915771484375,-1.824951171875,-4.947509765625,476.0,-462.0,288.0,-17.629297256469727,28.939306259155273,0.0,99.37045288085938,-90.54549407958984,56.446590423583984,-12.381327629089355,23.88770294189453,0.0
2327,-2.916748046875,-1.82666015625,-4.951171875,509.0,-475.0,324.0,-17.634267807006836,28.928909301757812,0.0,99.40930938720703,-90.58175659179688,56.4713249206543,-12.378044128417969,23.885574340820312,0.0
2332,-2.91552734375,-1.824462890625,-4.960693359375,495.0,-499.0,268.0,-17.592575073242188,28.88123321533203,0.0,99.44709777832031,-90.6198501586914,56.491783142089844,-12.375557899475098,23.88131332397461,0.0
2337,-2.916015625,-1.826171875,-4.952880859375,490.0,-486.0,296.0,-17.626678466796875,28.916227340698242,0.0,99.48450469970703,-90.65695190429688,56.51437759399414,-12.37369155883789,23.878297805786133,0.0
2342,-2.91650390625,-1.8193359375,-4.9541015625,507.0,-491.0,313.0,-17.561033248901367,28.925870895385742,0.0,99.52320861816406,-90.6944351196289,56.53826904296875,-12.370102882385254,23.874982833862305,0.0
2347,-2.91943359375,-1.82470703125,-4.958740234375,513.0,-489.0,315.0,-17.593931198120117,28.92171287536621,0.0,99.56237030029297,-90.73176574707031,56.562313079833984,-12.36629867553711,23.871809005737305,0.0
2352,-2.91552734375,-1.824951171875,-4.955322265625,501.0,-493.0,286.0,-17.610288619995117,28.90358543395996,0.0,99.60061645507812,-90.76940155029297,56.584144592285156,-12.363534927368164,23.868227005004883,0.0
2357,-2.916259765625,-1.827880859375,-4.9521484375,503.0,-476.0,303.0,-17.643611907958984,28.918697357177734,0.0,99.6390151977539,-90.80574035644531,56.60727310180664,-12.360857009887695,23.86605453491211,0.0
2362,-2.91455078125,-1.8251953125,-4.952880859375,503.0,-485.0,324.0,-17.619972229003906,28.905595779418945,0.0,99.67741394042969,-90.84276580810547,56.63200759887695,-12.358033180236816,23.863121032714844,0.0
2367,-2.912353515625,-1.822998046875,-4.95947265625,485.0,-486.0,301.0,-17.586950302124023,28.86241340637207,0.0,99.71443939208984,-90.87986755371094,56.65498352050781,-12.356366157531738,23.85983657836914,0.0
2373,-2.91357421875,-1.82373046875,-4.9580078125,496.0,-503.0,332.0,-17.595430374145508,28.877710342407227,0.0,99.75230407714844,-90.91826629638672,56.680328369140625,-12.353928565979004,23.855382919311523,0.0
2378,-2.915771484375,-1.828857421875,-4.949462890625,490.0,-486.0,298.0,-17.659835815429688,28.924657821655273,0.0,99.79718780517578,-90.96278381347656,56.70762634277344,-12.345062255859375,23.845287322998047,0.0
2383,-2.9150390625,-1.822265625,-4.948486328125,481.0,-475.0,310.0,-17.603607177734375,28.93326759338379,0.0,99.83390808105469,-90.9990463256836,56.73128890991211,-12.34398365020752,23.843517303466797,0.0
2388,-2.9150390625,-1.82568359375,-4.94775390625,510.0,-488.0,292.0,-17.63640022277832,28.93099021911621,0.0,99.87284088134766,-91.03630065917969,56.753578186035156,-12.34092903137207,23.840749740600586,0.0
2393,-2.921630859375,-1.826171875,-4.949951171875,493.0,-480.0,302.0,-17.625734329223633,28.975547790527344,0.0,99.91047668457031,-91.07294464111328,56.77663040161133,-12.339104652404785,23.83890151977539,0.0
2398,-2.916259765625,-1.82568359375,-4.956298828125,513.0,-496.0,294.0,-17.613431930541992,28.904306411743164,0.0,99.94963836669922,-91.11080932617188,56.799072265625,-12.335687637329102,23.835369110107422,0.0
2403,-2.917724609375,-1.820556640625,-4.95458984375,501.0,-483.0,296.0,-17.569108963012695,28.93198013305664,0.0,99.98788452148438,-91.1476821899414,56.8216667175293,-12.332900047302246,23.833024978637695,0.0
2408,-2.918701171875,-1.828857421875,-4.95458984375,484.0,-483.0,295.0,-17.6428279876709,28.926918029785156,0.0,100.02483367919922,-91.18455505371094,56.84418487548828,-12.331910133361816,23.830657958984375,0.0
2413,-2.92041015625,-1.82666015625,-4.94921875,496.0,-478.0,297.0,-17.633756637573242,28.967784881591797,0.0,100.06269836425781,-91.2210464477539,56.86685562133789,-12.329950332641602,23.828954696655273,0.0
2418,-2.9140625,-1.820556640625,-4.950439453125,497.0,-490.0,326.0,-17.584705352783203,28.919424057006836,0.0,100.10063934326172,-91.25845336914062,56.89174270629883,-12.327591896057129,23.82602310180664,0.0
2423,-2.916259765625,-1.82568359375,-4.951904296875,512.0,-480.0,306.0,-17.62432098388672,28.92324447631836,0.0,100.13972473144531,-91.29509735107422,56.91510009765625,-12.324373245239258,23.823888778686523,0.0
2428,-2.91748046875,-1.822998046875,-4.95849609375,504.0,-486.0,289.0,-17.581912994384766,28.909242630004883,0.0,100.1781997680664,-91.33219909667969,56.93716049194336,-12.321492195129395,23.82121467590332,0.0
2433,-2.913818359375,-1.819580078125,-4.959716796875,490.0,-495.0,262.0,-17.55327606201172,28.87894630432129,0.0,100.21560668945312,-91.36998748779297,56.95716094970703,-12.319494247436523,23.817668914794922,0.0
2438,-2.916015625,-1.82568359375,-4.941162109375,504.0,-485.0,316.0,-17.65134048461914,28.967592239379883,0.0,100.25408172607422,-91.40701293945312,56.98128128051758,-12.317102432250977,23.815494537353516,0.0
2443,-2.9150390625,-1.827392578125,-4.94775390625,496.0,-505.0,346.0,-17.651884078979492,28.928268432617188,0.0,100.29194641113281,-91.44556427001953,57.007694244384766,-12.315330505371094,23.81155014038086,0.0
2448,-2.91552734375,-1.82421875,-4.951171875,506.0,-483.0,308.0,-17.613937377929688,28.922637939453125,0.0,100.33057403564453,-91.48243713378906,57.03120422363281,-12.312553405761719,23.809255599975586,0.0
2453,-2.9140625,-1.82275390625,-4.950927734375,514.0,-483.0,302.0,-17.603408813476562,28.913829803466797,0.0,100.36981201171875,-91.5193099975586,57.054256439208984,-12.309111595153809,23.806913375854492,0.0
2458,-2.915771484375,-1.830078125,-4.95458984375,490.0,-497.0,291.0,-17.658153533935547,28.900625228881836,0.0,100.40721893310547,-91.5572509765625,57.07646942138672,-12.30787467956543,23.80343246459961,0.0
2463,-2.91748046875,-1.824951171875,-4.950439453125,495.0,-480.0,312.0,-17.619535446166992,28.94087791442871,0.0,100.44500732421875,-91.5938949584961,57.100284576416016,-12.30600357055664,23.801528930664062,0.0
2468,-2.914794921875,-1.822998046875,-4.959716796875,486.0,-477.0,320.0,-17.58279800415039,28.881664276123047,0.0,100.48210906982422,-91.63031005859375,57.12471389770508,-12.30457592010498,23.79946517944336,0.0
2473,-2.91748046875,-1.828125,-4.951171875,517.0,-475.0,316.0,-17.646461486816406,28.932668685913086,0.0,100.52157592773438,-91.66657257080078,57.148834228515625,-12.301229476928711,23.797903060913086,0.0
2478,-2.9169921875,-1.821533203125,-4.953857421875,502.0,-488.0,290.0,-17.580829620361328,28.927501678466797,0.0,100.55989837646484,-91.70382690429688,57.17097091674805,-12.298598289489746,23.795326232910156,0.0
2483,-2.9111328125,-1.819091796875,-4.951416015625,487.0,-482.0,307.0,-17.57327651977539,28.893146514892578,0.0,100.59707641601562,-91.7406234741211,57.19440460205078,-12.297066688537598,23.792985916137695,0.0
2488,-2.91796875,-1.826171875,-4.94091796875,503.0,-489.0,307.0,-17.65350914001465,28.9841251373291,0.0,100.6354751586914,-91.7779541015625,57.217838287353516,-12.294865608215332,23.79073715209961,0.0
2493,-2.914306640625,-1.826904296875,-4.948974609375,501.0,-495.0,308.0,-17.64550018310547,28.91768455505371,0.0,100.67372131347656,-91.81574249267578,57.24134826660156,-12.29277229309082,23.78759765625,0.0
2498,-2.91943359375,-1.822021484375,-4.948486328125,496.0,-474.0,294.0,-17.594980239868164,28.97021484375,0.0,100.71158599853516,-91.8519287109375,57.263790130615234,-12.290728569030762,23.786420822143555,0.0
2503,-2.914794921875,-1.824462890625,-4.949462890625,492.0,-483.0,291.0,-17.621456146240234,28.92352867126465,0.0,100.7491455078125,-91.88880157470703,57.28600311279297,-12.289175033569336,23.784250259399414,0.0
2509,-2.9150390625,-1.824462890625,-4.951171875,482.0,-489.0,303.0,-17.61686134338379,28.918188095092773,0.0,100.78594207763672,-91.92613220214844,57.30913162231445,-12.288354873657227,23.781599044799805,0.0
2514,-2.916748046875,-1.821533203125,-4.952880859375,537.0,-492.0,316.0,-17.583599090576172,28.929683685302734,0.0,100.83513641357422,-91.97119903564453,57.338077545166016,-12.275102615356445,23.771451950073242,0.0
2519,-2.91943359375,-1.8232421875,-4.951904296875,482.0,-479.0,323.0,-17.597579956054688,28.953514099121094,0.0,100.87193298339844,-92.00776672363281,57.362735748291016,-12.274340629577637,23.76997184753418,0.0
2524,-2.9169921875,-1.829833984375,-4.94775390625,489.0,-477.0,297.0,-17.671138763427734,28.940624237060547,0.0,100.90926361083984,-92.04418182373047,57.385406494140625,-12.273542404174805,23.768564224243164,0.0
2529,-2.91650390625,-1.82470703125,-4.947509765625,495.0,-472.0,327.0,-17.626014709472656,28.94578742980957,0.0,100.94705200195312,-92.08021545410156,57.410369873046875,-12.271985054016113,23.767574310302734,0.0
2534,-2.918212890625,-1.820556640625,-4.953857421875,506.0,-466.0,333.0,-17.570207595825195,28.939199447631836,0.0,100.98567962646484,-92.11579132080078,57.435791015625,-12.269224166870117,23.766996383666992,0.0
2539,-2.913818359375,-1.822265625,-4.95654296875,471.0,-482.0,300.0,-17.585437774658203,28.888370513916016,0.0,101.02163696289062,-92.152587890625,57.45869064331055,-12.269231796264648,23.764860153198242,0.0
2544,-2.92041015625,-1.82421875,-4.95654296875,496.0,-489.0,336.0,-17.593524932861328,28.9400691986084,0.0,101.05950164794922,-92.1899185180664,57.48434066772461,-12.267393112182617,23.762550354003906,0.0
2549,-2.9150390625,-1.823974609375,-4.949951171875,505.0,-474.0,304.0,-17.61546516418457,28.92422866821289,0.0,101.09805297851562,-92.22610473632812,57.507545471191406,-12.265027046203613,23.76128387451172,0.0
2554,-2.91552734375,-1.82080078125,-4.951904296875,483.0,-491.0,303.0,-17.581157684326172,28.92490577697754,0.0,101.13492584228516,-92.26358795166016,57.53067398071289,-12.26410961151123,23.75873374938965,0.0
2559,-2.91455078125,-1.828125,-4.9560546875,515.0,-488.0,320.0,-17.638626098632812,28.88727378845215,0.0,101.17424011230469,-92.30084228515625,57.55510330200195,-12.261152267456055,23.75617027282715,0.0
2564,-2.91796875,-1.8271484375,-4.950439453125,503.0,-477.0,287.0,-17.638721466064453,28.941442489624023,0.0,101.21263885498047,-92.3372573852539,57.57701110839844,-12.259119987487793,23.754819869995117,0.0
2569,-2.916748046875,-1.822998046875,-4.952392578125,503.0,-471.0,294.0,-17.59807777404785,28.92946434020996,0.0,101.25103759765625,-92.37321472167969,57.59945297241211,-12.256823539733887,23.753847122192383,0.0
2574,-2.91650390625,-1.826171875,-4.947509765625,507.0,-468.0,298.0,-17.639286041259766,28.94345474243164,0.0,101.28974151611328,-92.40894317626953,57.62220001220703,-12.254510879516602,23.753196716308594,0.0
2579,-2.917236328125,-1.824462890625,-4.948486328125,513.0,-485.0,267.0,-17.620309829711914,28.94805335998535,0.0,101.32890319824219,-92.44596862792969,57.642581939697266,-12.251626014709473,23.75128746032715,0.0
2584,-2.918701171875,-1.820068359375,-4.9501953125,501.0,-486.0,304.0,-17.57412338256836,28.9598445892334,0.0,101.36714935302734,-92.48307037353516,57.66578674316406,-12.249356269836426,23.7493896484375,0.0
2589,-2.91455078125,-1.8251953125,-4.95361328125,510.0,-475.0,294.0,-17.61815643310547,28.90243911743164,0.0,101.40608215332031,-92.51933288574219,57.688228607177734,-12.246710777282715,23.747949600219727,0.0
2594,-2.917236328125,-1.824951171875,-4.95458984375,481.0,-482.0,305.0,-17.60961151123047,28.920949935913086,0.0,101.44280242919922,-92.5561294555664,57.711509704589844,-12.246219635009766,23.74610710144043,0.0
2599,-2.9189453125,-1.822021484375,-4.960205078125,493.0,-484.0,322.0,-17.56672477722168,28.915599822998047,0.0,101.48043823242188,-92.59307861328125,57.73609161376953,-12.244528770446777,23.74408531188965,0.0
2604,-2.916259765625,-1.82421875,-4.9541015625,508.0,-467.0,300.0,-17.60561180114746,28.91609764099121,0.0,101.51921844482422,-92.62873077392578,57.75899124145508,-12.241969108581543,23.743366241455078,0.0
2609,-2.91845703125,-1.82568359375,-4.94970703125,508.0,-492.0,311.0,-17.626558303833008,28.95099449157715,0.0,101.55799865722656,-92.66629028320312,57.78273010253906,-12.239562034606934,23.740985870361328,0.0
2614,-2.91796875,-1.823486328125,-4.955810546875,511.0,-476.0,308.0,-17.592262268066406,28.924100875854492,0.0,101.59700775146484,-92.70262908935547,57.80624008178711,-12.236709594726562,23.73965072631836,0.0
2619,-2.91650390625,-1.8212890625,-4.947021484375,497.0,-507.0,301.0,-17.59624671936035,28.953336715698242,0.0,101.63494873046875,-92.7413330078125,57.82921600341797,-12.234959602355957,23.736164093017578,0.0
2624,-2.91650390625,-1.827880859375,-4.954833984375,506.0,-488.0,307.0,-17.636594772338867,28.909156799316406,0.0,101.67357635498047,-92.7785873413086,57.8526496887207,-12.232805252075195,23.733840942382812,0.0
2629,-2.91748046875,-1.82275390625,-4.951904296875,502.0,-491.0,295.0,-17.596006393432617,28.938051223754883,0.0,101.71189880371094,-92.81607055664062,57.87516784667969,-12.230691909790039,23.731494903564453,0.0
2634,-2.915771484375,-1.819580078125,-4.9541015625,491.0,-466.0,316.0,-17.56431007385254,28.91939353942871,0.0,101.74938201904297,-92.85164642333984,57.899288177490234,-12.229209899902344,23.730932235717773,0.0
2639,-2.9150390625,-1.824462890625,-4.95263671875,465.0,-456.0,311.0,-17.613231658935547,28.91187286376953,0.0,101.78488159179688,-92.88645935058594,57.92302703857422,-12.230033874511719,23.731077194213867,0.0
2645,-2.912841796875,-1.82177734375,-4.956787109375,522.0,-491.0,309.0,-17.581832885742188,28.879968643188477,0.0,101.8247299194336,-92.92394256591797,57.94661331176758,-12.22631549835205,23.728349685668945,0.0
2650,-2.917236328125,-1.8193359375,-4.95166015625,472.0,-478.0,318.0,-17.56599998474121,28.9424991607666,0.0,101.86796569824219,-92.96772766113281,57.97574234008789,-12.21924877166748,23.719892501831055,0.0
2655,-2.91748046875,-1.82470703125,-4.94921875,532.0,-475.0,308.0,-17.620349884033203,28.946535110473633,0.0,101.90857696533203,-93.00399017333984,57.99925231933594,-12.215198516845703,23.718992233276367,0.0
2660,-2.92236328125,-1.82763671875,-4.951416015625,500.0,-482.0,298.0,-17.634296417236328,28.972978591918945,0.0,101.94674682617188,-93.04078674316406,58.02199935913086,-12.213689804077148,23.717737197875977,0.0
2665,-2.916015625,-1.825927734375,-4.961669921875,499.0,-496.0,307.0,-17.60270118713379,28.87877082824707,0.0,101.9848403930664,-93.07865142822266,58.045433044433594,-12.21204948425293,23.714792251586914,0.0
2670,-2.915283203125,-1.82763671875,-4.951904296875,504.0,-486.0,282.0,-17.643434524536133,28.912015914916992,0.0,102.0233154296875,-93.11575317382812,58.066959381103516,-12.210309028625488,23.71284294128418,0.0
2675,-2.917236328125,-1.828125,-4.948974609375,500.0,-488.0,320.0,-17.652271270751953,28.940114974975586,0.0,102.06148529052734,-93.15300750732422,58.09138870239258,-12.208937644958496,23.710939407348633,0.0
2680,-2.918212890625,-1.825439453125,-4.94580078125,509.0,-479.0,284.0,-17.634389877319336,28.966218948364258,0.0,102.100341796875,-93.1895751953125,58.113067626953125,-12.206768035888672,23.709901809692383,0.0
2685,-2.9130859375,-1.8232421875,-4.95263671875,511.0,-483.0,271.0,-17.605022430419922,28.897560119628906,0.0,102.13935089111328,-93.22644805908203,58.13375473022461,-12.204259872436523,23.708101272583008,0.0
2690,-2.919189453125,-1.8271484375,-4.957275390625,496.0,-484.0,288.0,-17.619998931884766,28.922121047973633,0.0,102.17721557617188,-93.26339721679688,58.155738830566406,-12.203001022338867,23.706398010253906,0.0
2695,-2.919677734375,-1.82421875,-4.949462890625,503.0,-488.0,308.0,-17.612112045288086,28.964529037475586,0.0,102.21561431884766,-93.30065155029297,58.17924880981445,-12.201162338256836,23.704683303833008,0.0
2700,-2.917236328125,-1.8173828125,-4.95361328125,496.0,-472.0,292.0,-17.54347801208496,28.937162399291992,0.0,102.25347900390625,-93.33668518066406,58.2015380859375,-12.199400901794434,23.70400619506836,0.0
2705,-2.918701171875,-1.8251953125,-4.9560546875,518.0,-481.0,327.0,-17.606060028076172,28.926424026489258,0.0,102.29302215576172,-93.37340545654297,58.22650146484375,-12.19639778137207,23.702571868896484,0.0
2710,-2.9140625,-1.826904296875,-4.950439453125,506.0,-500.0,299.0,-17.642221450805664,28.909337997436523,0.0,102.33164978027344,-93.41157531738281,58.249324798583984,-12.194562911987305,23.699588775634766,0.0
2715,-2.910888671875,-1.818115234375,-4.95166015625,483.0,-486.0,318.0,-17.564172744750977,28.89160919189453,0.0,102.36852264404297,-93.44867706298828,58.273597717285156,-12.19395637512207,23.69756317138672,0.0
2720,-2.9140625,-1.826904296875,-4.95849609375,493.0,-489.0,303.0,-17.622238159179688,28.87464141845703,0.0,102.40615844726562,-93.48600769042969,58.29672622680664,-12.19297981262207,23.695205688476562,0.0
2725,-2.918701171875,-1.828125,-4.948974609375,482.0,-476.0,319.0,-17.650127410888672,28.952295303344727,0.0,102.44295501708984,-93.52234649658203,58.32107925415039,-12.19302749633789,23.694366455078125,0.0
2730,-2.918701171875,-1.822265625,-4.952880859375,533.0,-485.0,297.0,-17.587387084960938,28.944761276245117,0.0,102.483642578125,-93.55937194824219,58.34375,-12.188782691955566,23.692794799804688,0.0
2735,-2.91796875,-1.820556640625,-4.9521484375,485.0,-468.0,295.0,-17.574787139892578,28.94454574584961,0.0,102.52066802978516,-93.59510040283203,58.366268157958984,-12.188117027282715,23.69251823425293,0.0
2740,-2.918701171875,-1.826904296875,-4.95068359375,502.0,-464.0,297.0,-17.634836196899414,28.946866989135742,0.0,102.55899047851562,-93.63052368164062,58.388938903808594,-12.186564445495605,23.69255828857422,0.0
2745,-2.91357421875,-1.82177734375,-4.951171875,479.0,-459.0,289.0,-17.59466552734375,28.910263061523438,0.0,102.5955581665039,-93.66556549072266,58.4109992980957,-12.186492919921875,23.69272804260254,0.0
2750,-2.91796875,-1.82177734375,-4.953857421875,510.0,-456.0,316.0,-17.58161735534668,28.93523406982422,0.0,102.63449096679688,-93.70037841796875,58.43511962890625,-12.183979988098145,23.693286895751953,0.0
2755,-2.9150390625,-1.824462890625,-4.9560546875,504.0,-473.0,282.0,-17.604764938354492,28.897144317626953,0.0,102.67296600341797,-93.73648834228516,58.45664596557617,-12.182089805603027,23.692293167114258,0.0
2760,-2.9189453125,-1.82177734375,-4.94580078125,501.0,-478.0,306.0,-17.600128173828125,28.978147506713867,0.0,102.71121215820312,-93.77297973632812,58.480003356933594,-12.180404663085938,23.691465377807617,0.0
2765,-2.91845703125,-1.824951171875,-4.94970703125,498.0,-455.0,303.0,-17.619924545288086,28.952159881591797,0.0,102.74922943115234,-93.8077163696289,58.50313186645508,-12.179086685180664,23.692209243774414,0.0
2770,-2.915771484375,-1.8271484375,-4.954833984375,512.0,-492.0,305.0,-17.631032943725586,28.90423011779785,0.0,102.78831481933594,-93.84527587890625,58.52641296386719,-12.176785469055176,23.689817428588867,0.0
2775,-2.918701171875,-1.8271484375,-4.94921875,498.0,-478.0,303.0,-17.64067840576172,28.95279884338379,0.0,102.82633209228516,-93.88176727294922,58.54954147338867,-12.17562198638916,23.688823699951172,0.0
2781,-2.9130859375,-1.81884765625,-4.955810546875,497.0,-477.0,330.0,-17.557353973388672,28.89084243774414,0.0,102.86427307128906,-93.91818237304688,58.57473373413086,-12.173980712890625,23.687496185302734,0.0
2786,-2.91796875,-1.826171875,-4.940673828125,501.0,-464.0,313.0,-17.654115676879883,28.98518180847168,0.0,102.91016387939453,-93.96068572998047,58.6034049987793,-12.165200233459473,23.680856704711914,0.0
2791,-2.916015625,-1.830322265625,-4.955810546875,513.0,-496.0,301.0,-17.6569766998291,28.89701271057129,0.0,102.94932556152344,-93.99855041503906,58.626380920410156,-12.163179397583008,23.678274154663086,0.0
2796,-2.917236328125,-1.822265625,-4.957275390625,485.0,-469.0,290.0,-17.578655242919922,28.913633346557617,0.0,102.9863510131836,-94.03435516357422,58.64851760864258,-12.162765502929688,23.67786407470703,0.0
2801,-2.917724609375,-1.826171875,-4.949951171875,518.0,-486.0,285.0,-17.631444931030273,28.943073272705078,0.0,103.02589416503906,-94.07145690917969,58.67027282714844,-12.160201072692871,23.676359176635742,0.0
2806,-2.91748046875,-1.824462890625,-4.952880859375,497.0,-463.0,297.0,-17.609066009521484,28.931123733520508,0.0,103.06383514404297,-94.10680389404297,58.69294357299805,-12.159090995788574,23.676525115966797,0.0
2811,-2.9169921875,-1.819580078125,-4.954345703125,480.0,-492.0,319.0,-17.561931610107422,28.928491592407227,0.0,103.10047912597656,-94.14436340332031,58.7172966003418,-12.158956527709961,23.674467086791992,0.0
2816,-2.91650390625,-1.822021484375,-4.95703125,485.0,-457.0,290.0,-17.578113555908203,28.908985137939453,0.0,103.13750457763672,-94.17925262451172,58.73943328857422,-12.158547401428223,23.674942016601562,0.0
2821,-2.913330078125,-1.82275390625,-4.9462890625,486.0,-468.0,318.0,-17.615976333618164,28.927749633789062,0.0,103.17460632324219,-94.21498107910156,58.76370620727539,-12.15831470489502,23.674701690673828,0.0
2826,-2.915771484375,-1.824951171875,-4.953857421875,500.0,-476.0,295.0,-17.613561630249023,28.91192626953125,0.0,103.21277618408203,-94.2513198852539,58.786224365234375,-12.157000541687012,23.67374610900879,0.0
2831,-2.914306640625,-1.82421875,-4.960205078125,504.0,-499.0,293.0,-17.593347549438477,28.873571395874023,0.0,103.25125122070312,-94.28941345214844,58.808589935302734,-12.155251502990723,23.67078971862793,0.0
2836,-2.9189453125,-1.822265625,-4.95263671875,497.0,-469.0,290.0,-17.587635040283203,28.947845458984375,0.0,103.28919219970703,-94.3252182006836,58.830726623535156,-12.15400218963623,23.670621871948242,0.0
2841,-2.9189453125,-1.826904296875,-4.950927734375,494.0,-491.0,296.0,-17.633872985839844,28.947843551635742,0.0,103.326904296875,-94.36270141601562,58.85332107543945,-12.15329360961914,23.668781280517578,0.0
2846,-2.914794921875,-1.818603515625,-4.951171875,496.0,-501.0,303.0,-17.564123153686523,28.925457000732422,0.0,103.3647689819336,-94.40094757080078,58.87644958496094,-12.151966094970703,23.666040420532227,0.0
2851,-2.9150390625,-1.820556640625,-4.95068359375,502.0,-467.0,319.0,-17.582677841186523,28.926498413085938,0.0,103.40309143066406,-94.43659973144531,58.90080261230469,-12.150313377380371,23.6658992767334,0.0
2856,-2.91552734375,-1.8271484375,-4.951904296875,490.0,-481.0,308.0,-17.638656616210938,28.914823532104492,0.0,103.44049835205078,-94.47332000732422,58.924312591552734,-12.149951934814453,23.664613723754883,0.0
2861,-2.916748046875,-1.825439453125,-4.9482421875,523.0,-481.0,321.0,-17.630477905273438,28.943490982055664,0.0,103.48042297363281,-94.51004028320312,58.94881820678711,-12.147031784057617,23.663524627685547,0.0
2866,-2.917236328125,-1.822998046875,-4.951416015625,525.0,-469.0,291.0,-17.599782943725586,28.9377384185791,0.0,103.52050018310547,-94.54584503173828,58.971031188964844,-12.143769264221191,23.663312911987305,0.0
2871,-2.913818359375,-1.82080078125,-4.955322265625,515.0,-488.0,300.0,-17.575191497802734,28.89594841003418,0.0,103.559814453125,-94.58309936523438,58.99393081665039,-12.141118049621582,23.661376953125,0.0
2876,-2.91455078125,-1.82373046875,-4.9501953125,503.0,-499.0,333.0,-17.613359451293945,28.91950225830078,0.0,103.59821319580078,-94.6211929321289,59.019351959228516,-12.139646530151367,23.65877342224121,0.0
2881,-2.92041015625,-1.8203125,-4.952392578125,482.0,-480.0,316.0,-17.56841468811035,28.964176177978516,0.0,103.635009765625,-94.6578369140625,59.04347229003906,-12.139472007751465,23.657922744750977,0.0
2886,-2.91845703125,-1.824462890625,-4.94970703125,499.0,-470.0,296.0,-17.615501403808594,28.952938079833984,0.0,103.67310333251953,-94.69371795654297,59.06606674194336,-12.138319969177246,23.657758712768555,0.0
2891,-2.9150390625,-1.823486328125,-4.952880859375,516.0,-481.0,262.0,-17.603782653808594,28.912370681762695,0.0,103.71249389648438,-94.73043823242188,59.08606719970703,-12.135804176330566,23.656484603881836,0.0
2896,-2.912353515625,-1.822265625,-4.947021484375,515.0,-496.0,290.0,-17.611160278320312,28.917234420776367,0.0,103.7518081665039,-94.76830291748047,59.10820388793945,-12.133426666259766,23.654109954833984,0.0
2901,-2.914794921875,-1.825927734375,-4.9501953125,514.0,-477.0,273.0,-17.632909774780273,28.918039321899414,0.0,103.79104614257812,-94.80471801757812,59.12904357910156,-12.131282806396484,23.653194427490234,0.0
