Time,Acc_low_X,Acc_low_Y,Acc_low_Z,Gyro_low_X,Gyro_low_Y,Gyro_low_Z,Acc_X,Acc_Y,Acc_Z,Gyro_X,Gyro_Y,Gyro_Z,Euler_X,Euler_Y,Euler_Z
5,-2.94775390625,-2.8427734375,-5.95556640625,486.0,-491.0,342.0,-23.16107749938965,24.069358825683594,0.0,198.02088928222656,-200.05813598632812,139.3480224609375,-22.986536026000977,23.892505645751953,0.0
10,-2.951416015625,-2.842529296875,-5.950439453125,490.0,-488.0,336.0,-23.16855812072754,24.11117935180664,0.0,198.05828857421875,-200.0953826904297,139.37367248535156,-23.058801651000977,23.98316764831543,0.0
15,-2.94921875,-2.839599609375,-5.95263671875,505.0,-496.0,332.0,-23.144100189208984,24.092939376831055,0.0,198.09683227539062,-200.13323974609375,139.39901733398438,-23.061527252197266,23.9945068359375,0.0
20,-2.949462890625,-2.8466796875,-5.94775390625,477.0,-510.0,352.0,-23.20903968811035,24.099088668823242,0.0,198.13323974609375,-200.1721649169922,139.42588806152344,-23.071094512939453,23.991453170776367,0.0
25,-2.947998046875,-2.843994140625,-5.94970703125,485.0,-498.0,338.0,-23.186023712158203,24.086530685424805,0.0,198.17025756835938,-200.21017456054688,139.45169067382812,-23.064464569091797,23.980058670043945,0.0
30,-2.953125,-2.84033203125,-5.951171875,466.0,-485.0,334.0,-23.148122787475586,24.124475479125977,0.0,198.20582580566406,-200.2471923828125,139.47718811035156,-23.048768997192383,23.973283767700195,0.0
35,-2.951904296875,-2.843505859375,-5.952392578125,475.0,-480.0,345.0,-23.169540405273438,24.107643127441406,0.0,198.24208068847656,-200.28382873535156,139.50352478027344,-23.034954071044922,23.961082458496094,0.0
40,-2.9501953125,-2.84619140625,-5.952880859375,484.0,-495.0,315.0,-23.19011688232422,24.09010124206543,0.0,198.27902221679688,-200.3216094970703,139.52757263183594,-23.022037506103516,23.94416046142578,0.0
45,-2.953857421875,-2.8466796875,-5.955810546875,483.0,-492.0,331.0,-23.18040657043457,24.107358932495117,0.0,198.31588745117188,-200.35916137695312,139.55284118652344,-23.006879806518555,23.928930282592773,0.0
50,-2.946533203125,-2.846435546875,-5.953369140625,508.0,-468.0,324.0,-23.195602416992188,24.06182861328125,0.0,198.3546600341797,-200.39488220214844,139.57757568359375,-22.99087905883789,23.91008758544922,0.0
55,-2.946044921875,-2.84619140625,-5.949951171875,482.0,-487.0,297.0,-23.204069137573242,24.068605422973633,0.0,198.39144897460938,-200.4320526123047,139.60025024414062,-22.976844787597656,23.890727996826172,0.0
60,-2.951416015625,-2.8447265625,-5.9560546875,489.0,-488.0,336.0,-23.168880462646484,24.091711044311523,0.0,198.42877197265625,-200.46929931640625,139.6259002685547,-22.958663940429688,23.873363494873047,0.0
65,-2.949951171875,-2.84375,-5.957763671875,509.0,-512.0,322.0,-23.15901756286621,24.07748794555664,0.0,198.46762084960938,-200.5083770751953,139.65048217773438,-22.938249588012695,23.853029251098633,0.0
70,-2.951904296875,-2.84716796875,-5.951171875,489.0,-509.0,336.0,-23.199642181396484,24.106094360351562,0.0,198.50494384765625,-200.54722595214844,139.67613220214844,-22.922311782836914,23.835079193115234,0.0
75,-2.951904296875,-2.84521484375,-5.95654296875,503.0,-501.0,334.0,-23.17039680480957,24.093137741088867,0.0,198.5433349609375,-200.58546447753906,139.70162963867188,-22.9030704498291,23.816646575927734,0.0
80,-2.952880859375,-2.84375,-5.94921875,475.0,-493.0,329.0,-23.178836822509766,24.123645782470703,0.0,198.57958984375,-200.6230926513672,139.72674560546875,-22.88637924194336,23.80062484741211,0.0
85,-2.949462890625,-2.842529296875,-5.950927734375,483.0,-475.0,316.0,-23.169898986816406,24.09561538696289,0.0,198.616455078125,-200.6593475341797,139.75086975097656,-22.868427276611328,23.783926010131836,0.0
91,-2.950927734375,-2.844970703125,-5.94677734375,482.0,-503.0,346.0,-23.19727897644043,24.114938735961914,0.0,198.6532440185547,-200.69773864746094,139.77728271484375,-22.852035522460938,23.766141891479492,0.0
96,-2.949951171875,-2.844482421875,-5.94970703125,486.0,-482.0,333.0,-23.18687629699707,24.09998893737793,0.0,198.69776916503906,-200.7418975830078,139.8077850341797,-22.827587127685547,23.741987228393555,0.0
101,-2.94873046875,-2.8447265625,-5.95361328125,475.0,-514.0,325.0,-23.17942237854004,24.079404830932617,0.0,198.73402404785156,-200.7811279296875,139.8325958251953,-22.81084442138672,23.72169303894043,0.0
106,-2.947265625,-2.83935546875,-5.954345703125,461.0,-510.0,327.0,-23.140247344970703,24.074146270751953,0.0,198.7692108154297,-200.82005310058594,139.85755920410156,-22.79312515258789,23.70151710510254,0.0
111,-2.951416015625,-2.841064453125,-5.952392578125,481.0,-483.0,338.0,-23.152420043945312,24.107515335083008,0.0,198.80592346191406,-200.85691833496094,139.88336181640625,-22.774532318115234,23.68491554260254,0.0
116,-2.955810546875,-2.845458984375,-5.95556640625,498.0,-491.0,344.0,-23.169492721557617,24.123897552490234,0.0,198.84393310546875,-200.89439392089844,139.9096221923828,-22.755483627319336,23.668306350708008,0.0
121,-2.949951171875,-2.844482421875,-5.95068359375,498.0,-486.0,335.0,-23.184144973754883,24.097135543823242,0.0,198.88194274902344,-200.93148803710938,139.93519592285156,-22.73707389831543,23.650779724121094,0.0
126,-2.947509765625,-2.843505859375,-5.943603515625,484.0,-480.0,334.0,-23.20022964477539,24.101511001586914,0.0,198.91888427734375,-200.96812438964844,139.960693359375,-22.720308303833008,23.633806228637695,0.0
131,-2.947509765625,-2.84619140625,-5.946533203125,490.0,-490.0,343.0,-23.211610794067383,24.08919334411621,0.0,198.95628356933594,-201.00552368164062,139.98687744140625,-22.703433990478516,23.615537643432617,0.0
136,-2.949951171875,-2.848876953125,-5.951416015625,498.0,-474.0,325.0,-23.214120864868164,24.08885955810547,0.0,198.99429321289062,-201.0417022705078,140.01168823242188,-22.685951232910156,23.598421096801758,0.0
141,-2.957275390625,-2.845703125,-5.94677734375,478.0,-501.0,327.0,-23.193796157836914,24.15985679626465,0.0,199.03077697753906,-201.07994079589844,140.03665161132812,-22.669118881225586,23.581832885742188,0.0
146,-2.951416015625,-2.842529296875,-5.953369140625,474.0,-497.0,324.0,-23.160369873046875,24.102617263793945,0.0,199.06695556640625,-201.1178741455078,140.06138610839844,-22.651342391967773,23.563390731811523,0.0
151,-2.948486328125,-2.843994140625,-5.95166015625,504.0,-513.0,338.0,-23.17988395690918,24.084362030029297,0.0,199.1054229736328,-201.1570281982422,140.08718872070312,-22.63201141357422,23.543142318725586,0.0
156,-2.949951171875,-2.84521484375,-5.95361328125,495.0,-489.0,326.0,-23.181289672851562,24.087556838989258,0.0,199.14320373535156,-201.19435119628906,140.11207580566406,-22.613422393798828,23.52483558654785,0.0
161,-2.95166015625,-2.83984375,-5.95263671875,487.0,-470.0,315.0,-23.142501831054688,24.110271453857422,0.0,199.1803741455078,-201.230224609375,140.13612365722656,-22.594200134277344,23.508657455444336,0.0
166,-2.9501953125,-2.847900390625,-5.95068359375,487.0,-472.0,332.0,-23.208717346191406,24.09412956237793,0.0,199.21754455566406,-201.26625061035156,140.16146850585938,-22.577077865600586,23.49175262451172,0.0
171,-2.951416015625,-2.846435546875,-5.95458984375,477.0,-514.0,312.0,-23.185422897338867,24.093603134155273,0.0,199.2539520263672,-201.30548095703125,140.18528747558594,-22.5599422454834,23.471683502197266,0.0
176,-2.950439453125,-2.845703125,-5.954345703125,470.0,-498.0,337.0,-23.1821231842041,24.088272094726562,0.0,199.28982543945312,-201.34349060058594,140.2110137939453,-22.543195724487305,23.45269775390625,0.0
181,-2.9521484375,-2.84765625,-5.94970703125,494.0,-487.0,350.0,-23.206960678100586,24.1114559173584,0.0,199.32752990722656,-201.3806610107422,140.23773193359375,-22.525331497192383,23.435211181640625,0.0
186,-2.947265625,-2.842529296875,-5.954345703125,480.0,-504.0,313.0,-23.16338539123535,24.069726943969727,0.0,199.36416625976562,-201.41912841796875,140.26162719726562,-22.507280349731445,23.415281295776367,0.0
191,-2.9501953125,-2.845947265625,-5.94482421875,483.0,-465.0,354.0,-23.210886001586914,24.11397933959961,0.0,199.40103149414062,-201.45462036132812,140.2886505126953,-22.490297317504883,23.399503707885742,0.0
196,-2.95361328125,-2.844482421875,-5.951416015625,495.0,-473.0,325.0,-23.177019119262695,24.12150001525879,0.0,199.43881225585938,-201.49072265625,140.31346130371094,-22.47149085998535,23.383258819580078,0.0
201,-2.948486328125,-2.848876953125,-5.953857421875,484.0,-472.0,309.0,-23.20931625366211,24.071136474609375,0.0,199.4757537841797,-201.52674865722656,140.33705139160156,-22.454355239868164,23.365739822387695,0.0
206,-2.94775390625,-2.84423828125,-5.950927734375,496.0,-475.0,331.0,-23.18472671508789,24.080856323242188,0.0,199.51361083984375,-201.56300354003906,140.36231994628906,-22.435680389404297,23.348247528076172,0.0
211,-2.951904296875,-2.842529296875,-5.949462890625,474.0,-484.0,347.0,-23.170610427856445,24.117568969726562,0.0,199.54978942871094,-201.59994506835938,140.38880920410156,-22.418319702148438,23.33098030090332,0.0
216,-2.949951171875,-2.84423828125,-5.952880859375,494.0,-480.0,325.0,-23.176219940185547,24.091060638427734,0.0,199.58749389648438,-201.63658142089844,140.4136199951172,-22.399600982666016,23.313356399536133,0.0
221,-2.94970703125,-2.845703125,-5.955810546875,500.0,-485.0,316.0,-23.17904281616211,24.078699111938477,0.0,199.6256561279297,-201.67359924316406,140.437744140625,-22.380529403686523,23.295072555541992,0.0
227,-2.95166015625,-2.842041015625,-5.9462890625,507.0,-484.0,312.0,-23.17626190185547,24.125768661499023,0.0,199.6643524169922,-201.71054077148438,140.46156311035156,-22.36090660095215,23.277963638305664,0.0
232,-2.949462890625,-2.84423828125,-5.943115234375,472.0,-473.0,343.0,-23.204225540161133,24.116064071655273,0.0,199.7075958251953,-201.75387573242188,140.49298095703125,-22.337543487548828,23.25439453125,0.0
237,-2.950927734375,-2.84228515625,-5.94775390625,483.0,-512.0,351.0,-23.174962997436523,24.1158390045166,0.0,199.7444610595703,-201.79295349121094,140.519775390625,-22.31987762451172,23.235092163085938,0.0
242,-2.9501953125,-2.841796875,-5.9501953125,492.0,-450.0,331.0,-23.165592193603516,24.104080200195312,0.0,199.78201293945312,-201.82730102539062,140.5450439453125,-22.30134391784668,23.220195770263672,0.0
247,-2.948486328125,-2.841796875,-5.9560546875,504.0,-515.0,335.0,-23.15158462524414,24.074594497680664,0.0,199.8204803466797,-201.86660766601562,140.57061767578125,-22.281644821166992,23.199764251708984,0.0
252,-2.95263671875,-2.847412109375,-5.951904296875,489.0,-511.0,325.0,-23.19835662841797,24.10891342163086,0.0,199.85780334472656,-201.90560913085938,140.59542846679688,-22.264095306396484,23.1804141998291,0.0
257,-2.950439453125,-2.843505859375,-5.951904296875,491.0,-494.0,312.0,-23.172935485839844,24.098468780517578,0.0,199.89527893066406,-201.9433135986328,140.61924743652344,-22.245874404907227,23.16215705871582,0.0
262,-2.950439453125,-2.8447265625,-5.95263671875,475.0,-506.0,325.0,-23.179786682128906,24.09462547302246,0.0,199.93153381347656,-201.98193359375,140.64405822753906,-22.2290096282959,23.142942428588867,0.0
267,-2.951171875,-2.839599609375,-5.94873046875,487.0,-489.0,327.0,-23.152307510375977,24.118501663208008,0.0,199.9687042236328,-202.01925659179688,140.6690216064453,-22.210697174072266,23.125507354736328,0.0
272,-2.94873046875,-2.846435546875,-5.954833984375,502.0,-472.0,345.0,-23.188461303710938,24.07345962524414,0.0,200.00701904296875,-202.05528259277344,140.6953582763672,-22.191991806030273,23.10847282409668,0.0
277,-2.951904296875,-2.84423828125,-5.953857421875,479.0,-480.0,371.0,-23.17078399658203,24.102340698242188,0.0,200.0435791015625,-202.0919189453125,140.7236785888672,-22.174699783325195,23.091392517089844,0.0
282,-2.95458984375,-2.842529296875,-5.9560546875,481.0,-493.0,344.0,-23.14847755432129,24.117733001708984,0.0,200.08029174804688,-202.12954711914062,140.74993896484375,-22.156848907470703,23.073623657226562,0.0
287,-2.948974609375,-2.8466796875,-5.944091796875,497.0,-483.0,342.0,-23.2199764251709,24.10625457763672,0.0,200.11822509765625,-202.16641235351562,140.7760467529297,-22.13913917541504,23.0564022064209,0.0
292,-2.9541015625,-2.844970703125,-5.946044921875,482.0,-504.0,309.0,-23.19491958618164,24.140058517456055,0.0,200.15501403808594,-202.2048797607422,140.7996368408203,-22.122102737426758,23.03822135925293,0.0
297,-2.952392578125,-2.844970703125,-5.946044921875,475.0,-481.0,310.0,-23.197294235229492,24.127685546875,0.0,200.19126892089844,-202.24159240722656,140.82330322265625,-22.105632781982422,23.021554946899414,0.0
302,-2.947265625,-2.8466796875,-5.95849609375,499.0,-499.0,319.0,-23.182025909423828,24.05184555053711,0.0,200.22935485839844,-202.27967834472656,140.84765625,-22.087085723876953,23.002199172973633,0.0
307,-2.949951171875,-2.843505859375,-5.954345703125,465.0,-483.0,328.0,-23.166786193847656,24.08780288696289,0.0,200.2648468017578,-202.31654357910156,140.87269592285156,-22.070858001708984,22.984722137451172,0.0
312,-2.951416015625,-2.843994140625,-5.952392578125,484.0,-505.0,332.0,-23.173776626586914,24.10342788696289,0.0,200.30178833007812,-202.35508728027344,140.89804077148438,-22.05331802368164,22.965877532958984,0.0
317,-2.94580078125,-2.844970703125,-5.956298828125,493.0,-482.0,349.0,-23.177745819091797,24.050025939941406,0.0,200.33941650390625,-202.39187622070312,140.9246826171875,-22.035188674926758,22.94789695739746,0.0
322,-2.945556640625,-2.84619140625,-5.948974609375,482.0,-470.0,333.0,-23.207481384277344,24.06791877746582,0.0,200.37620544433594,-202.42774963378906,140.95010375976562,-22.018404006958008,22.931150436401367,0.0
327,-2.948974609375,-2.84130859375,-5.95458984375,488.0,-489.0,325.0,-23.15144157409668,24.083084106445312,0.0,200.4134521484375,-202.46507263183594,140.97491455078125,-22.000255584716797,22.91323471069336,0.0
332,-2.948486328125,-2.846435546875,-5.947021484375,475.0,-501.0,348.0,-23.21066665649414,24.094497680664062,0.0,200.44970703125,-202.50331115722656,141.00148010253906,-21.984073638916016,22.894630432128906,0.0
337,-2.947021484375,-2.845703125,-5.94970703125,502.0,-495.0,329.0,-23.199838638305664,24.077072143554688,0.0,200.48802185058594,-202.5410919189453,141.02659606933594,-21.965682983398438,22.876235961914062,0.0
342,-2.9521484375,-2.84716796875,-5.947509765625,511.0,-495.0,336.0,-23.209550857543945,24.118560791015625,0.0,200.5270233154297,-202.57887268066406,141.05224609375,-21.946800231933594,22.858530044555664,0.0
347,-2.9521484375,-2.846435546875,-5.95263671875,491.0,-499.0,342.0,-23.189870834350586,24.104604721069336,0.0,200.5644989013672,-202.61695861816406,141.07835388183594,-21.92915153503418,22.840328216552734,0.0
352,-2.9482421875,-2.847412109375,-5.94873046875,490.0,-479.0,332.0,-23.21333885192871,24.086374282836914,0.0,200.60189819335938,-202.6535186767578,141.10369873046875,-21.91196060180664,22.823379516601562,0.0
357,-2.953125,-2.845947265625,-5.953369140625,487.0,-486.0,341.0,-23.18290901184082,24.110212326049805,0.0,200.63906860351562,-202.69061279296875,141.12973022460938,-21.894546508789062,22.8062801361084,0.0
363,-2.952392578125,-2.841796875,-5.9521484375,471.0,-483.0,310.0,-23.157089233398438,24.114274978637695,0.0,200.67501831054688,-202.72747802734375,141.1533966064453,-21.877973556518555,22.78948211669922,0.0
368,-2.948974609375,-2.84228515625,-5.947998046875,483.0,-504.0,317.0,-23.17698860168457,24.100980758666992,0.0,200.71926879882812,-202.77365112304688,141.18243408203125,-21.853567123413086,22.763364791870117,0.0
373,-2.95068359375,-2.8447265625,-5.9482421875,458.0,-481.0,316.0,-23.191740036010742,24.109230041503906,0.0,200.7542266845703,-202.81036376953125,141.20655822753906,-21.838647842407227,22.746828079223633,0.0
378,-2.9521484375,-2.84326171875,-5.95361328125,504.0,-491.0,322.0,-23.164011001586914,24.106182098388672,0.0,200.79269409179688,-202.84783935546875,141.23114013671875,-21.819854736328125,22.729503631591797,0.0
383,-2.949951171875,-2.84375,-5.94970703125,493.0,-446.0,345.0,-23.181535720825195,24.101011276245117,0.0,200.830322265625,-202.8818817138672,141.25747680664062,-21.80218505859375,22.715511322021484,0.0
388,-2.94970703125,-2.8427734375,-5.947998046875,480.0,-490.0,346.0,-23.179534912109375,24.105602264404297,0.0,200.86695861816406,-202.91928100585938,141.2838897705078,-21.785493850708008,22.6982479095459,0.0
393,-2.95361328125,-2.843505859375,-5.947021484375,475.0,-489.0,321.0,-23.18218421936035,24.135717391967773,0.0,200.90321350097656,-202.95660400390625,141.3083953857422,-21.769235610961914,22.681503295898438,0.0
398,-2.951171875,-2.841064453125,-5.956787109375,484.0,-470.0,340.0,-23.140487670898438,24.09290885925293,0.0,200.94015502929688,-202.9924774169922,141.3343505859375,-21.751733779907227,22.665611267089844,0.0
403,-2.94970703125,-2.847412109375,-5.959716796875,487.0,-463.0,337.0,-23.180572509765625,24.06492805480957,0.0,200.97732543945312,-203.02781677246094,141.36007690429688,-21.734588623046875,22.649869918823242,0.0
408,-2.951904296875,-2.84765625,-5.9501953125,483.0,-495.0,329.0,-23.2059326171875,24.10826301574707,0.0,201.01419067382812,-203.0655975341797,141.38519287109375,-21.71811294555664,22.632314682006836,0.0
413,-2.954345703125,-2.84228515625,-5.9482421875,479.0,-462.0,332.0,-23.168853759765625,24.1391544342041,0.0,201.05075073242188,-203.10086059570312,141.41053771972656,-21.70145606994629,22.61768913269043,0.0
418,-2.94970703125,-2.84228515625,-5.953857421875,467.0,-497.0,308.0,-23.159591674804688,24.089162826538086,0.0,201.08639526367188,-203.1387939453125,141.43405151367188,-21.68560218811035,22.59975242614746,0.0
423,-2.951416015625,-2.847412109375,-5.955322265625,497.0,-467.0,316.0,-23.190488815307617,24.090103149414062,0.0,201.12432861328125,-203.1744384765625,141.4581756591797,-21.66790771484375,22.58412742614746,0.0
428,-2.952880859375,-2.846923828125,-5.95263671875,498.0,-487.0,335.0,-23.192411422729492,24.109222412109375,0.0,201.16233825683594,-203.21160888671875,141.48374938964844,-21.650197982788086,22.56725311279297,0.0
433,-2.94873046875,-2.8447265625,-5.94921875,476.0,-484.0,332.0,-23.19171714782715,24.092235565185547,0.0,201.19866943359375,-203.24855041503906,141.50909423828125,-21.634172439575195,22.550411224365234,0.0
438,-2.94873046875,-2.848876953125,-5.939208984375,495.0,-499.0,343.0,-23.250036239624023,24.11568260192871,0.0,201.2364501953125,-203.28663635253906,141.5352783203125,-21.61747169494629,22.532764434814453,0.0
443,-2.951416015625,-2.844482421875,-5.956787109375,500.0,-503.0,342.0,-23.165056228637695,24.089914321899414,0.0,201.2746124267578,-203.3250274658203,141.56138610839844,-21.59933853149414,22.5145263671875,0.0
448,-2.95166015625,-2.842041015625,-5.948486328125,494.0,-488.0,328.0,-23.17011833190918,24.119340896606445,0.0,201.31231689453125,-203.36227416992188,141.58642578125,-21.58176612854004,22.497833251953125,0.0
453,-2.94873046875,-2.8408203125,-5.956787109375,501.0,-485.0,306.0,-23.1420841217041,24.075584411621094,0.0,201.35055541992188,-203.3992919921875,141.6097869873047,-21.563358306884766,22.480846405029297,0.0
458,-2.952392578125,-2.844482421875,-5.954345703125,496.0,-466.0,333.0,-23.170522689819336,24.10410499572754,0.0,201.38841247558594,-203.4348602294922,141.6352081298828,-21.54572868347168,22.46567726135254,0.0
463,-2.952880859375,-2.845947265625,-5.950927734375,484.0,-478.0,325.0,-23.190074920654297,24.11557960510254,0.0,201.42535400390625,-203.47134399414062,141.66001892089844,-21.529281616210938,22.449750900268555,0.0
468,-2.94873046875,-2.847412109375,-5.95068359375,483.0,-507.0,327.0,-23.207191467285156,24.08420753479004,0.0,201.46221923828125,-203.51004028320312,141.6849822998047,-21.51314353942871,22.431278228759766,0.0
473,-2.949951171875,-2.8447265625,-5.948486328125,492.0,-503.0,336.0,-23.19207191467285,24.103214263916016,0.0,201.49977111816406,-203.54843139648438,141.71063232421875,-21.496164321899414,22.413387298583984,0.0
478,-2.95263671875,-2.84521484375,-5.94921875,503.0,-462.0,341.0,-23.189855575561523,24.119831085205078,0.0,201.5381622314453,-203.5836944580078,141.73666381835938,-21.478363037109375,22.39883041381836,0.0
483,-2.94873046875,-2.847900390625,-5.95361328125,492.0,-498.0,318.0,-23.202547073364258,24.07497787475586,0.0,201.57571411132812,-203.6217041015625,141.7609405517578,-21.461584091186523,22.381032943725586,0.0
488,-2.9521484375,-2.843505859375,-5.948974609375,494.0,-521.0,324.0,-23.178756713867188,24.119400024414062,0.0,201.61341857910156,-203.66146850585938,141.78567504882812,-21.444406509399414,22.3620662689209,0.0
493,-2.94970703125,-2.84326171875,-5.945068359375,501.0,-513.0,326.0,-23.191293716430664,24.113487243652344,0.0,201.6516571044922,-203.70062255859375,141.81056213378906,-21.426883697509766,22.343692779541016,0.0
499,-2.9521484375,-2.843505859375,-5.95166015625,474.0,-469.0,331.0,-23.171249389648438,24.111549377441406,0.0,201.68783569335938,-203.73641967773438,141.83583068847656,-21.411211013793945,22.32866668701172,0.0
504,-2.947509765625,-2.843505859375,-5.95849609375,480.0,-496.0,321.0,-23.158567428588867,24.058029174804688,0.0,201.7318115234375,-203.7818603515625,141.865234375,-21.38775062561035,22.303552627563477,0.0
509,-2.953125,-2.84228515625,-5.955078125,490.0,-472.0,322.0,-23.151451110839844,24.110328674316406,0.0,201.7692108154297,-203.81788635253906,141.8898162841797,-21.370813369750977,22.288463592529297,0.0
514,-2.951904296875,-2.84228515625,-5.95166015625,494.0,-478.0,350.0,-23.162689208984375,24.111486434936523,0.0,201.80691528320312,-203.8543701171875,141.91653442382812,-21.353740692138672,22.27294921875,0.0
519,-2.950927734375,-2.844482421875,-5.950927734375,483.0,-490.0,313.0,-23.18210792541504,24.103490829467773,0.0,201.84378051757812,-203.8917694091797,141.9404296875,-21.33775520324707,22.256460189819336,0.0
524,-2.95068359375,-2.84619140625,-5.948974609375,490.0,-490.0,332.0,-23.200366973876953,24.105043411254883,0.0,201.8811798095703,-203.92916870117188,141.9657745361328,-21.32147216796875,22.240020751953125,0.0
529,-2.949462890625,-2.844970703125,-5.955078125,487.0,-476.0,343.0,-23.17609214782715,24.080089569091797,0.0,201.91835021972656,-203.9654998779297,141.99195861816406,-21.305177688598633,22.224397659301758,0.0
534,-2.947998046875,-2.842041015625,-5.952392578125,479.0,-476.0,333.0,-23.16427230834961,24.081411361694336,0.0,201.9549102783203,-204.0018310546875,142.0173797607422,-21.289390563964844,22.20881462097168,0.0
539,-2.949951171875,-2.847412109375,-5.951171875,476.0,-486.0,321.0,-23.204130172729492,24.09161949157715,0.0,201.99124145507812,-204.03892517089844,142.04188537597656,-21.274293899536133,22.19261360168457,0.0
544,-2.951416015625,-2.844482421875,-5.95166015625,483.0,-506.0,324.0,-23.179384231567383,24.10488510131836,0.0,202.02810668945312,-204.07754516601562,142.06661987304688,-21.258419036865234,22.175081253051758,0.0
549,-2.949462890625,-2.848388671875,-5.953857421875,498.0,-496.0,341.0,-23.20440673828125,24.07888412475586,0.0,202.0661163330078,-204.1154022216797,142.0926513671875,-21.241710662841797,22.158071517944336,0.0
554,-2.95068359375,-2.845703125,-5.952880859375,486.0,-494.0,310.0,-23.185882568359375,24.094316482543945,0.0,202.10321044921875,-204.15310668945312,142.11631774902344,-21.22574806213379,22.141420364379883,0.0
559,-2.95654296875,-2.84814453125,-5.949462890625,479.0,-493.0,344.0,-23.205095291137695,24.143281936645508,0.0,202.1397705078125,-204.19073486328125,142.142578125,-21.21055030822754,22.125404357910156,0.0
564,-2.9501953125,-2.845703125,-5.9560546875,499.0,-478.0,325.0,-23.177684783935547,24.081518173217773,0.0,202.1778564453125,-204.2272186279297,142.16738891601562,-21.193578720092773,22.109901428222656,0.0
569,-2.94873046875,-2.84619140625,-5.953125,502.0,-496.0,347.0,-23.191463470458984,24.078786849975586,0.0,202.21617126464844,-204.26507568359375,142.19387817382812,-21.17656898498535,22.093040466308594,0.0
574,-2.95068359375,-2.846435546875,-5.951416015625,493.0,-473.0,351.0,-23.195316314697266,24.097570419311523,0.0,202.25379943847656,-204.30117797851562,142.22067260742188,-21.160324096679688,22.07815933227539,0.0
579,-2.948974609375,-2.845703125,-5.952392578125,479.0,-499.0,341.0,-23.18961524963379,24.0833740234375,0.0,202.2903594970703,-204.33926391601562,142.2467041015625,-21.14511489868164,22.061189651489258,0.0
584,-2.9482421875,-2.84716796875,-5.956298828125,510.0,-492.0,351.0,-23.19037628173828,24.064634323120117,0.0,202.32928466796875,-204.37681579589844,142.27349853515625,-21.127599716186523,22.04460334777832,0.0
589,-2.949462890625,-2.847412109375,-5.94873046875,498.0,-494.0,324.0,-23.21164321899414,24.095212936401367,0.0,202.36729431152344,-204.41452026367188,142.29823303222656,-21.11125946044922,22.028223037719727,0.0
594,-2.95166015625,-2.842529296875,-5.955322265625,491.0,-492.0,346.0,-23.154577255249023,24.098678588867188,0.0,202.40476989746094,-204.4520721435547,142.32464599609375,-21.094907760620117,22.01207160949707,0.0
599,-2.950439453125,-2.8466796875,-5.9462890625,489.0,-510.0,324.0,-23.21178436279297,24.11043930053711,0.0,202.4420928955078,-204.49099731445312,142.34938049316406,-21.079328536987305,21.994718551635742,0.0
604,-2.9521484375,-2.84375,-5.96240234375,485.0,-492.0,317.0,-23.143035888671875,24.079849243164062,0.0,202.47911071777344,-204.52854919433594,142.3735809326172,-21.063392639160156,21.978469848632812,0.0
609,-2.952880859375,-2.84423828125,-5.951416015625,470.0,-495.0,345.0,-23.176254272460938,24.116540908813477,0.0,202.51498413085938,-204.5663299560547,142.39991760253906,-21.048965454101562,21.962404251098633,0.0
614,-2.945556640625,-2.846435546875,-5.955322265625,482.0,-494.0,318.0,-23.19148826599121,24.0490665435791,0.0,202.55177307128906,-204.60403442382812,142.4241943359375,-21.03380584716797,21.945783615112305,0.0
619,-2.94921875,-2.84814453125,-5.94970703125,498.0,-472.0,345.0,-23.21458625793457,24.089570999145508,0.0,202.58978271484375,-204.6400604248047,142.45053100585938,-21.017698287963867,21.931276321411133,0.0
624,-2.94970703125,-2.842529296875,-5.951416015625,500.0,-498.0,341.0,-23.168195724487305,24.09595489501953,0.0,202.62794494628906,-204.67807006835938,142.4765625,-21.00102424621582,21.914892196655273,0.0
629,-2.952880859375,-2.842041015625,-5.953125,467.0,-459.0,308.0,-23.15546417236328,24.114612579345703,0.0,202.66358947753906,-204.71310424804688,142.5000762939453,-20.986770629882812,21.901683807373047,0.0
635,-2.9521484375,-2.84521484375,-5.94482421875,490.0,-497.0,305.0,-23.202831268310547,24.129146575927734,0.0,202.70098876953125,-204.75103759765625,142.5233612060547,-20.971263885498047,21.885759353637695,0.0
640,-2.95166015625,-2.8447265625,-5.9521484375,511.0,-489.0,331.0,-23.179458618164062,24.10488510131836,0.0,202.747802734375,-204.79583740234375,142.55368041992188,-20.946298599243164,21.862895965576172,0.0
645,-2.952392578125,-2.848388671875,-5.95556640625,483.0,-503.0,333.0,-23.195566177368164,24.095090866088867,0.0,202.78466796875,-204.834228515625,142.5791015625,-20.931459426879883,21.84638214111328,0.0
650,-2.948486328125,-2.84130859375,-5.94873046875,477.0,-502.0,354.0,-23.168495178222656,24.096668243408203,0.0,202.82107543945312,-204.87254333496094,142.6061248779297,-20.91684913635254,21.830007553100586,0.0
655,-2.95166015625,-2.842529296875,-5.948486328125,488.0,-489.0,316.0,-23.17367935180664,24.1186580657959,0.0,202.8583221435547,-204.9098663330078,142.6302490234375,-20.901485443115234,21.81487274169922,0.0
660,-2.95361328125,-2.84423828125,-5.9462890625,484.0,-471.0,338.0,-23.189573287963867,24.1368350982666,0.0,202.895263671875,-204.94581604003906,142.6560516357422,-20.886613845825195,21.801307678222656,0.0
665,-2.950439453125,-2.84423828125,-5.948974609375,492.0,-483.0,316.0,-23.18646812438965,24.10600471496582,0.0,202.9328155517578,-204.98268127441406,142.68017578125,-20.871143341064453,21.786563873291016,0.0
670,-2.94775390625,-2.844970703125,-5.947021484375,500.0,-479.0,323.0,-23.20100212097168,24.09124183654785,0.0,202.97097778320312,-205.0192413330078,142.704833984375,-20.85524559020996,21.772016525268555,0.0
675,-2.951171875,-2.8447265625,-5.953369140625,489.0,-471.0,359.0,-23.17672348022461,24.0977840423584,0.0,203.00830078125,-205.05519104003906,142.73223876953125,-20.839996337890625,21.758169174194336,0.0
680,-2.949462890625,-2.847900390625,-5.95166015625,470.0,-503.0,349.0,-23.206998825073242,24.08597755432129,0.0,203.04417419433594,-205.0935821533203,142.75888061523438,-20.826507568359375,21.741819381713867,0.0
685,-2.948974609375,-2.846923828125,-5.946044921875,508.0,-474.0,342.0,-23.216283798217773,24.100204467773438,0.0,203.08294677734375,-205.1297607421875,142.7849884033203,-20.810253143310547,21.727846145629883,0.0
690,-2.95166015625,-2.850341796875,-5.95068359375,484.0,-481.0,338.0,-23.224470138549805,24.101316452026367,0.0,203.11988830566406,-205.16647338867188,142.810791015625,-20.79593849182129,21.713382720947266,0.0
695,-2.95068359375,-2.842529296875,-5.956298828125,497.0,-473.0,316.0,-23.153200149536133,24.088762283325195,0.0,203.15782165527344,-205.20257568359375,142.8349151611328,-20.780017852783203,21.699443817138672,0.0
700,-2.948486328125,-2.84326171875,-5.951416015625,495.0,-475.0,342.0,-23.17522621154785,24.086095809936523,0.0,203.1956024169922,-205.23883056640625,142.86102294921875,-20.76449966430664,21.685359954833984,0.0
705,-2.949951171875,-2.844970703125,-5.9560546875,470.0,-479.0,336.0,-23.172685623168945,24.080772399902344,0.0,203.23147583007812,-205.275390625,142.8866729736328,-20.75089454650879,21.670957565307617,0.0
710,-2.94921875,-2.84619140625,-5.951171875,495.0,-464.0,323.0,-23.196250915527344,24.088022232055664,0.0,203.26925659179688,-205.31080627441406,142.9113311767578,-20.735641479492188,21.657793045043945,0.0
715,-2.950927734375,-2.848876953125,-5.947265625,494.0,-500.0,337.0,-23.224388122558594,24.108047485351562,0.0,203.3069610595703,-205.34896850585938,142.9370574951172,-20.720762252807617,21.64211082458496,0.0
720,-2.955078125,-2.846923828125,-5.9541015625,488.0,-475.0,323.0,-23.18526840209961,24.12083625793457,0.0,203.34420776367188,-205.38522338867188,142.9617156982422,-20.706024169921875,21.62848472595215,0.0
725,-2.951416015625,-2.843505859375,-5.950439453125,484.0,-497.0,341.0,-23.175676345825195,24.10981559753418,0.0,203.3811492919922,-205.42315673828125,142.9877471923828,-20.69154167175293,21.61312484741211,0.0
730,-2.94970703125,-2.843505859375,-5.94921875,491.0,-487.0,341.0,-23.181459426879883,24.101011276245117,0.0,203.4186248779297,-205.4603271484375,143.01377868652344,-20.676620483398438,21.59848976135254,0.0
735,-2.94921875,-2.843017578125,-5.955078125,499.0,-523.0,330.0,-23.162195205688477,24.081045150756836,0.0,203.4567108154297,-205.500244140625,143.03897094726562,-20.660966873168945,21.580995559692383,0.0
740,-2.950927734375,-2.84521484375,-5.95166015625,486.0,-484.0,331.0,-23.18539810180664,24.10032844543457,0.0,203.49380493164062,-205.5371856689453,143.06423950195312,-20.64655303955078,21.566688537597656,0.0
745,-2.954345703125,-2.8447265625,-5.952880859375,489.0,-499.0,324.0,-23.173688888549805,24.122175216674805,0.0,203.5311279296875,-205.5752716064453,143.08897399902344,-20.63184928894043,21.55147933959961,0.0
750,-2.951171875,-2.84521484375,-5.951171875,468.0,-500.0,339.0,-23.186426162719727,24.1035213470459,0.0,203.5668487548828,-205.61343383789062,143.11485290527344,-20.6188907623291,21.53607749938965,0.0
755,-2.95166015625,-2.843017578125,-5.95166015625,474.0,-491.0,339.0,-23.168367385864258,24.10869789123535,0.0,203.60302734375,-205.65090942382812,143.14073181152344,-20.605348587036133,21.52145004272461,0.0
760,-2.951171875,-2.843017578125,-5.951904296875,475.0,-497.0,343.0,-23.16836166381836,24.104450225830078,0.0,203.6392822265625,-205.6888427734375,143.1669158935547,-20.591764450073242,21.506376266479492,0.0
765,-2.945068359375,-2.845458984375,-5.9560546875,467.0,-495.0,296.0,-23.183000564575195,24.044754028320312,0.0,203.6749267578125,-205.72662353515625,143.18951416015625,-20.578948974609375,21.490982055664062,0.0
771,-2.947265625,-2.845947265625,-5.95751953125,474.0,-495.0,323.0,-23.17942237854004,24.055709838867188,0.0,203.7111053466797,-205.764404296875,143.21417236328125,-20.565601348876953,21.47573471069336,0.0
776,-2.953125,-2.84326171875,-5.947509765625,467.0,-485.0,317.0,-23.179716110229492,24.131093978881836,0.0,203.75389099121094,-205.808837890625,143.2432098388672,-20.54580307006836,21.45465850830078,0.0
781,-2.9541015625,-2.84423828125,-5.951171875,482.0,-489.0,341.0,-23.175243377685547,24.126087188720703,0.0,203.79067993164062,-205.84616088867188,143.2692413330078,-20.5319881439209,21.440675735473633,0.0
786,-2.94873046875,-2.84716796875,-5.954345703125,486.0,-505.0,319.0,-23.195161819458008,24.073862075805664,0.0,203.82777404785156,-205.88470458984375,143.29359436035156,-20.51807975769043,21.425073623657227,0.0
791,-2.947265625,-2.84765625,-5.947021484375,478.0,-502.0,331.0,-23.221261978149414,24.083951950073242,0.0,203.8642578125,-205.9230194091797,143.31886291503906,-20.505041122436523,21.409839630126953,0.0
796,-2.951904296875,-2.84375,-5.948486328125,491.0,-482.0,338.0,-23.182239532470703,24.11871910095215,0.0,203.9017333984375,-205.95980834960938,143.34466552734375,-20.4907169342041,21.396467208862305,0.0
801,-2.949462890625,-2.84619140625,-5.9482421875,493.0,-504.0,314.0,-23.204113006591797,24.098344802856445,0.0,203.93936157226562,-205.99827575683594,143.36863708496094,-20.476472854614258,21.38129234313965,0.0
806,-2.95458984375,-2.846923828125,-5.958251953125,484.0,-484.0,342.0,-23.17435073852539,24.105188369750977,0.0,203.97630310058594,-206.03521728515625,143.39474487304688,-20.46269989013672,21.367740631103516,0.0
811,-2.948974609375,-2.8447265625,-5.94970703125,481.0,-479.0,332.0,-23.190011978149414,24.09257698059082,0.0,204.0130157470703,-206.07177734375,143.4200897216797,-20.44932746887207,21.35449981689453,0.0
816,-2.95166015625,-2.846435546875,-5.953857421875,477.0,-521.0,323.0,-23.187131881713867,24.09750747680664,0.0,204.04942321777344,-206.11154174804688,143.4447479248047,-20.4362735748291,21.338159561157227,0.0
821,-2.94970703125,-2.843017578125,-5.958740234375,491.0,-488.0,328.0,-23.15129280090332,24.07389259338379,0.0,204.08689880371094,-206.14878845214844,143.46978759765625,-20.421894073486328,21.324180603027344,0.0
826,-2.94873046875,-2.845458984375,-5.948486328125,474.0,-509.0,305.0,-23.199106216430664,24.093353271484375,0.0,204.12307739257812,-206.18763732910156,143.49307250976562,-20.409250259399414,21.308820724487305,0.0
831,-2.953857421875,-2.845703125,-5.948486328125,482.0,-482.0,308.0,-23.193767547607422,24.130125045776367,0.0,204.1598663330078,-206.22442626953125,143.51658630371094,-20.39598846435547,21.295866012573242,0.0
836,-2.953857421875,-2.84375,-5.956298828125,492.0,-473.0,315.0,-23.157703399658203,24.11001968383789,0.0,204.19741821289062,-206.26052856445312,143.54063415527344,-20.3817081451416,21.283462524414062,0.0
841,-2.952880859375,-2.842041015625,-5.951416015625,482.0,-488.0,348.0,-23.16023826599121,24.11960792541504,0.0,204.2342071533203,-206.2977752685547,143.56719970703125,-20.368255615234375,21.27003288269043,0.0
846,-2.9521484375,-2.848876953125,-5.9501953125,492.0,-491.0,334.0,-23.214487075805664,24.10832405090332,0.0,204.27175903320312,-206.3352508544922,143.5926971435547,-20.354536056518555,21.256324768066406,0.0
851,-2.949462890625,-2.84375,-5.947509765625,462.0,-480.0,318.0,-23.1883602142334,24.103897094726562,0.0,204.30702209472656,-206.37188720703125,143.61697387695312,-20.34291648864746,21.24345588684082,0.0
856,-2.951904296875,-2.84716796875,-5.943115234375,507.0,-470.0,361.0,-23.222198486328125,24.129642486572266,0.0,204.34571838378906,-206.4077606201172,143.64453125,-20.328195571899414,21.23159408569336,0.0
861,-2.951904296875,-2.8447265625,-5.948974609375,468.0,-494.0,321.0,-23.18799591064453,24.11592674255371,0.0,204.38143920898438,-206.44546508789062,143.66903686523438,-20.316200256347656,21.217830657958984,0.0
866,-2.95068359375,-2.8427734375,-5.95458984375,491.0,-492.0,301.0,-23.159753799438477,24.093412399291992,0.0,204.41891479492188,-206.48301696777344,143.6920166015625,-20.302263259887695,21.20408058166504,0.0
871,-2.952880859375,-2.8427734375,-5.943115234375,483.0,-481.0,325.0,-23.18878746032715,24.142871856689453,0.0,204.45578002929688,-206.5197296142578,143.71682739257812,-20.289216995239258,21.191612243652344,0.0
876,-2.9521484375,-2.846435546875,-5.94970703125,502.0,-495.0,328.0,-23.19806480407715,24.113162994384766,0.0,204.4940948486328,-206.55751037597656,143.7418670654297,-20.274850845336914,21.177879333496094,0.0
881,-2.951416015625,-2.843505859375,-5.948974609375,477.0,-491.0,331.0,-23.179773330688477,24.114097595214844,0.0,204.53050231933594,-206.59498596191406,143.7671356201172,-20.26228141784668,21.16450309753418,0.0
886,-2.95068359375,-2.843017578125,-5.951171875,473.0,-475.0,315.0,-23.171085357666016,24.103055953979492,0.0,204.5666046142578,-206.63124084472656,143.7911834716797,-20.249982833862305,21.152294158935547,0.0
891,-2.947265625,-2.844482421875,-5.956298828125,496.0,-485.0,294.0,-23.172163009643555,24.061307907104492,0.0,204.60446166992188,-206.6682586669922,143.81362915039062,-20.23598861694336,21.139026641845703,0.0
896,-2.9501953125,-2.84619140625,-5.950927734375,481.0,-520.0,319.0,-23.195579528808594,24.09580421447754,0.0,204.64117431640625,-206.70794677734375,143.83798217773438,-20.223369598388672,21.123432159423828,0.0
901,-2.9453125,-2.84521484375,-5.9521484375,487.0,-473.0,310.0,-23.191814422607422,24.058252334594727,0.0,204.6783447265625,-206.74404907226562,143.8616485595703,-20.21030616760254,21.111160278320312,0.0
907,-2.951171875,-2.84716796875,-5.950439453125,479.0,-495.0,329.0,-23.202707290649414,24.10293197631836,0.0,204.71490478515625,-206.78182983398438,143.8867645263672,-20.197978973388672,21.09761619567871,0.0
912,-2.951904296875,-2.84814453125,-5.951904296875,493.0,-494.0,321.0,-23.204708099365234,24.102590560913086,0.0,204.76007080078125,-206.82708740234375,143.91616821289062,-20.17723846435547,21.076770782470703,0.0
917,-2.947998046875,-2.8466796875,-5.954345703125,501.0,-499.0,288.0,-23.19261932373047,24.069242477416992,0.0,204.79830932617188,-206.86517333984375,143.9381561279297,-20.163368225097656,21.062868118286133,0.0
922,-2.953125,-2.8447265625,-5.951416015625,481.0,-472.0,328.0,-23.179475784301758,24.117624282836914,0.0,204.83502197265625,-206.9011993408203,143.96319580078125,-20.150957107543945,21.051448822021484,0.0
927,-2.949951171875,-2.847900390625,-5.952880859375,493.0,-490.0,338.0,-23.202905654907227,24.085948944091797,0.0,204.87265014648438,-206.9385986328125,143.98899841308594,-20.13786506652832,21.03844451904297,0.0
932,-2.946533203125,-2.8466796875,-5.94287109375,492.0,-471.0,336.0,-23.22679328918457,24.092134475708008,0.0,204.9102020263672,-206.97454833984375,144.0146484375,-20.12508201599121,21.026973724365234,0.0
937,-2.94970703125,-2.845458984375,-5.956787109375,490.0,-490.0,326.0,-23.17453384399414,24.076189041137695,0.0,204.94760131835938,-207.01194763183594,144.03953552246094,-20.11208152770996,21.01397132873535,0.0
942,-2.94970703125,-2.841796875,-5.9541015625,483.0,-503.0,293.0,-23.155351638793945,24.08913230895996,0.0,204.98446655273438,-207.0503387451172,144.06190490722656,-20.099504470825195,21.000133514404297,0.0
947,-2.951171875,-2.84375,-5.947509765625,474.0,-506.0,325.0,-23.185989379882812,24.11627197265625,0.0,205.02064514160156,-207.08895874023438,144.0867156982422,-20.0878963470459,20.9863338470459,0.0
952,-2.9521484375,-2.84130859375,-5.9541015625,484.0,-506.0,328.0,-23.148412704467773,24.107479095458984,0.0,205.05758666992188,-207.12757873535156,144.11175537109375,-20.07526969909668,20.972518920898438,0.0
957,-2.94873046875,-2.843505859375,-5.950439453125,489.0,-502.0,332.0,-23.179399490356445,24.090375900268555,0.0,205.09490966796875,-207.1658935546875,144.13710021972656,-20.06255340576172,20.958925247192383,0.0
962,-2.951904296875,-2.842041015625,-5.948486328125,473.0,-481.0,339.0,-23.16977882385254,24.12110710144043,0.0,205.13101196289062,-207.20260620117188,144.16297912597656,-20.0510196685791,20.947214126586914,0.0
967,-2.94970703125,-2.841796875,-5.943359375,489.0,-499.0,314.0,-23.18539047241211,24.12053680419922,0.0,205.1683349609375,-207.24069213867188,144.18695068359375,-20.03843116760254,20.934173583984375,0.0
972,-2.948486328125,-2.845947265625,-5.948486328125,508.0,-486.0,342.0,-23.203004837036133,24.09090232849121,0.0,205.2071075439453,-207.2777862548828,144.2130584716797,-20.024587631225586,20.921934127807617,0.0
977,-2.95068359375,-2.84619140625,-5.955078125,494.0,-528.0,319.0,-23.18329429626465,24.08721923828125,0.0,205.24481201171875,-207.31808471679688,144.23741149902344,-20.01170539855957,20.906526565551758,0.0
982,-2.951171875,-2.8427734375,-5.9560546875,497.0,-506.0,338.0,-23.154985427856445,24.092666625976562,0.0,205.28274536132812,-207.35670471191406,144.26321411132812,-19.998424530029297,20.89289665222168,0.0
987,-2.950927734375,-2.84375,-5.9462890625,465.0,-479.0,324.0,-23.189743041992188,24.118074417114258,0.0,205.3182373046875,-207.3932647705078,144.28794860839844,-19.987890243530273,20.881561279296875,0.0
992,-2.950927734375,-2.840087890625,-5.953369140625,506.0,-501.0,334.0,-23.143247604370117,24.102487564086914,0.0,205.3568572998047,-207.43150329589844,144.31344604492188,-19.973920822143555,20.86847686767578,0.0
997,-2.950439453125,-2.84375,-5.949462890625,480.0,-486.0,316.0,-23.181541442871094,24.105260848999023,0.0,205.39349365234375,-207.46859741210938,144.3375701904297,-19.9622745513916,20.856599807739258,0.0
1002,-2.950439453125,-2.84765625,-5.9521484375,479.0,-488.0,340.0,-23.202499389648438,24.091960906982422,0.0,205.4300537109375,-207.50584411621094,144.363525390625,-19.950904846191406,20.844511032104492,0.0
1007,-2.955078125,-2.843994140625,-5.947998046875,496.0,-479.0,334.0,-23.180978775024414,24.142778396606445,0.0,205.46791076660156,-207.5424041748047,144.38902282714844,-19.938121795654297,20.833538055419922,0.0
1012,-2.949951171875,-2.8466796875,-5.95166015625,477.0,-481.0,333.0,-23.19742774963379,24.091215133666992,0.0,205.5043182373047,-207.57911682128906,144.41444396972656,-19.92695426940918,20.822053909301758,0.0
1017,-2.94970703125,-2.8447265625,-5.94873046875,479.0,-483.0,332.0,-23.191728591918945,24.100732803344727,0.0,205.54087829589844,-207.61598205566406,144.43978881835938,-19.91562843322754,20.810531616210938,0.0
1022,-2.950927734375,-2.846923828125,-5.958251953125,481.0,-504.0,319.0,-23.179420471191406,24.078706741333008,0.0,205.5775909423828,-207.65444946289062,144.46414184570312,-19.904096603393555,20.797290802001953,0.0
1027,-2.950439453125,-2.84716796875,-5.951171875,486.0,-485.0,315.0,-23.201675415039062,24.09549331665039,0.0,205.61468505859375,-207.69146728515625,144.48818969726562,-19.892396926879883,20.78567123413086,0.0
1032,-2.948974609375,-2.845458984375,-5.944580078125,500.0,-480.0,336.0,-23.209707260131836,24.106534957885742,0.0,205.65284729003906,-207.7281036376953,144.5138397216797,-19.879741668701172,20.77455711364746,0.0
1037,-2.95166015625,-2.847412109375,-5.947265625,483.0,-494.0,328.0,-23.212692260742188,24.115398406982422,0.0,205.68971252441406,-207.76580810546875,144.53887939453125,-19.868446350097656,20.762489318847656,0.0
1043,-2.950927734375,-2.84619140625,-5.947998046875,497.0,-508.0,320.0,-23.202762603759766,24.109663009643555,0.0,205.72764587402344,-207.80458068847656,144.5633087158203,-19.856056213378906,20.74936294555664,0.0
1048,-2.949951171875,-2.844970703125,-5.947265625,485.0,-489.0,354.0,-23.197269439697266,24.1064395904541,0.0,205.77207946777344,-207.84938049316406,144.59573364257812,-19.837299346923828,20.730363845825195,0.0
1053,-2.947509765625,-2.8466796875,-5.95458984375,476.0,-494.0,329.0,-23.19261360168457,24.06499671936035,0.0,205.80841064453125,-207.8870849609375,144.620849609375,-19.826635360717773,20.71817970275879,0.0
1058,-2.949951171875,-2.844970703125,-5.953857421875,483.0,-503.0,338.0,-23.1788272857666,24.08718490600586,0.0,205.84527587890625,-207.92547607421875,144.6466522216797,-19.815372467041016,20.705528259277344,0.0
1063,-2.949462890625,-2.846435546875,-5.95263671875,495.0,-475.0,340.0,-23.193593978881836,24.085172653198242,0.0,205.883056640625,-207.96173095703125,144.672607421875,-19.80335235595703,20.695035934448242,0.0
1068,-2.948974609375,-2.84619140625,-5.949951171875,502.0,-499.0,330.0,-23.20000648498535,24.089818954467773,0.0,205.92137145996094,-207.99981689453125,144.6977996826172,-19.7908992767334,20.68279457092285,0.0
1073,-2.94921875,-2.847900390625,-5.950927734375,485.0,-497.0,334.0,-23.209388732910156,24.086347579956055,0.0,205.95838928222656,-208.03775024414062,144.72329711914062,-19.77985382080078,20.67072868347168,0.0
1078,-2.94970703125,-2.841064453125,-5.953369140625,468.0,-483.0,331.0,-23.152057647705078,24.0922908782959,0.0,205.99411010742188,-208.07461547851562,144.74856567382812,-19.76970672607422,20.659814834594727,0.0
1083,-2.950439453125,-2.848876953125,-5.95166015625,495.0,-486.0,329.0,-23.212759017944336,24.0916805267334,0.0,206.03189086914062,-208.11170959472656,144.773681640625,-19.75800323486328,20.648710250854492,0.0
1088,-2.95068359375,-2.84716796875,-5.94970703125,480.0,-482.0,352.0,-23.205434799194336,24.101537704467773,0.0,206.0685272216797,-208.14849853515625,144.80055236816406,-19.747426986694336,20.638023376464844,0.0
1093,-2.94873046875,-2.84375,-5.954833984375,489.0,-489.0,340.0,-23.16889190673828,24.07720375061035,0.0,206.10585021972656,-208.18582153320312,144.82650756835938,-19.73593521118164,20.626663208007812,0.0
1098,-2.952392578125,-2.845703125,-5.950927734375,486.0,-494.0,344.0,-23.18897247314453,24.11238670349121,0.0,206.1429443359375,-208.22352600097656,144.85276794433594,-19.724864959716797,20.615230560302734,0.0
1103,-2.951171875,-2.8447265625,-5.9482421875,475.0,-485.0,323.0,-23.19106101989746,24.112764358520508,0.0,206.17919921875,-208.2605438232422,144.87742614746094,-19.71468734741211,20.604528427124023,0.0
1108,-2.949462890625,-2.84619140625,-5.951171875,481.0,-486.0,308.0,-23.195913314819336,24.08978843688965,0.0,206.21591186523438,-208.29763793945312,144.90093994140625,-19.704126358032227,20.593618392944336,0.0
1113,-2.949462890625,-2.84228515625,-5.94873046875,488.0,-493.0,327.0,-23.17426300048828,24.10237693786621,0.0,206.25315856933594,-208.33526611328125,144.9259033203125,-19.692913055419922,20.582313537597656,0.0
1118,-2.9462890625,-2.845458984375,-5.9521484375,455.0,-493.0,334.0,-23.192241668701172,24.064985275268555,0.0,206.2878875732422,-208.37289428710938,144.95140075683594,-19.68437957763672,20.570777893066406,0.0
1123,-2.949462890625,-2.841796875,-5.94873046875,468.0,-512.0,337.0,-23.17070198059082,24.103057861328125,0.0,206.3236083984375,-208.41197204589844,144.9771270751953,-19.674726486206055,20.55813217163086,0.0
1128,-2.95166015625,-2.8447265625,-5.94287109375,495.0,-493.0,336.0,-23.20541763305664,24.132009506225586,0.0,206.36138916015625,-208.44960021972656,145.00277709960938,-19.663318634033203,20.547195434570312,0.0
1133,-2.949462890625,-2.84033203125,-5.953369140625,467.0,-483.0,344.0,-23.147056579589844,24.09154510498047,0.0,206.39703369140625,-208.48646545410156,145.02903747558594,-19.653648376464844,20.536760330200195,0.0
1138,-2.95068359375,-2.8447265625,-5.9482421875,482.0,-501.0,330.0,-23.191740036010742,24.109230041503906,0.0,206.43382263183594,-208.5247039794922,145.05422973632812,-19.643205642700195,20.525131225585938,0.0
1143,-2.95263671875,-2.843505859375,-5.952880859375,477.0,-497.0,348.0,-23.16716194152832,24.111515045166016,0.0,206.47023010253906,-208.56263732910156,145.08079528808594,-19.63300323486328,20.513872146606445,0.0
1148,-2.95166015625,-2.846435546875,-5.951904296875,475.0,-489.0,348.0,-23.192594528198242,24.10321044921875,0.0,206.50648498535156,-208.59996032714844,145.10736083984375,-19.623178482055664,20.503204345703125,0.0
1153,-2.948974609375,-2.841796875,-5.946044921875,491.0,-491.0,352.0,-23.178892135620117,24.10737419128418,0.0,206.54396057128906,-208.63743591308594,145.1342315673828,-19.612075805664062,20.49245834350586,0.0
1158,-2.950927734375,-2.8486328125,-5.944091796875,497.0,-486.0,336.0,-23.23150062561035,24.117664337158203,0.0,206.58189392089844,-208.67453002929688,145.15988159179688,-19.600950241088867,20.482208251953125,0.0
1163,-2.950927734375,-2.84375,-5.948486328125,479.0,-499.0,330.0,-23.183595657348633,24.111650466918945,0.0,206.6184539794922,-208.71261596679688,145.18507385253906,-19.590885162353516,20.470970153808594,0.0
1168,-2.95166015625,-2.848876953125,-5.95458984375,456.0,-500.0,322.0,-23.20286750793457,24.091960906982422,0.0,206.65325927734375,-208.7507781982422,145.20965576171875,-19.582744598388672,20.45956039428711,0.0
1173,-2.948486328125,-2.84326171875,-5.948486328125,481.0,-494.0,327.0,-23.183422088623047,24.094654083251953,0.0,206.68997192382812,-208.78848266601562,145.234619140625,-19.57259178161621,20.448673248291016,0.0
1179,-2.9521484375,-2.84423828125,-5.94873046875,466.0,-485.0,332.0,-23.184778213500977,24.119089126586914,0.0,206.7255401611328,-208.82550048828125,145.2599639892578,-19.563627243041992,20.438692092895508,0.0
1184,-2.950439453125,-2.84423828125,-5.94921875,491.0,-500.0,322.0,-23.18578338623047,24.10529136657715,0.0,206.77052307128906,-208.87130737304688,145.28945922851562,-19.54543685913086,20.420007705688477,0.0
1189,-2.94970703125,-2.844482421875,-5.955810546875,493.0,-471.0,321.0,-23.170148849487305,24.080400466918945,0.0,206.8081512451172,-208.90725708007812,145.31396484375,-19.534521102905273,20.411020278930664,0.0
1194,-2.949462890625,-2.843994140625,-5.95263671875,492.0,-476.0,328.0,-23.175800323486328,24.088579177856445,0.0,206.845703125,-208.94358825683594,145.33900451660156,-19.523767471313477,20.401744842529297,0.0
1199,-2.94873046875,-2.842529296875,-5.9462890625,487.0,-491.0,322.0,-23.18389129638672,24.10386848449707,0.0,206.88287353515625,-208.98106384277344,145.36358642578125,-19.513498306274414,20.391477584838867,0.0
1204,-2.94921875,-2.841064453125,-5.953369140625,482.0,-485.0,328.0,-23.152732849121094,24.088756561279297,0.0,206.91966247558594,-209.01808166503906,145.3886260986328,-19.5034236907959,20.3815975189209,0.0
1209,-2.9501953125,-2.843994140625,-5.94677734375,480.0,-503.0,355.0,-23.191173553466797,24.11100196838379,0.0,206.956298828125,-209.0564727783203,145.4157257080078,-19.493820190429688,20.370553970336914,0.0
1214,-2.9482421875,-2.844970703125,-5.96337890625,485.0,-494.0,331.0,-23.154592514038086,24.047061920166016,0.0,206.99331665039062,-209.09417724609375,145.4409942626953,-19.483610153198242,20.359777450561523,0.0
1219,-2.950439453125,-2.8427734375,-5.953857421875,507.0,-519.0,342.0,-23.162137985229492,24.09378433227539,0.0,207.03201293945312,-209.1337890625,145.46710205078125,-19.471832275390625,20.347492218017578,0.0
1224,-2.948974609375,-2.843505859375,-5.9560546875,470.0,-489.0,350.0,-23.163362503051758,24.075748443603516,0.0,207.06788635253906,-209.17111206054688,145.4938201904297,-19.462921142578125,20.337406158447266,0.0
1229,-2.9521484375,-2.845458984375,-5.955322265625,502.0,-483.0,333.0,-23.175247192382812,24.098125457763672,0.0,207.106201171875,-209.20797729492188,145.5192413330078,-19.451704025268555,20.327978134155273,0.0
1234,-2.949951171875,-2.845703125,-5.956787109375,487.0,-507.0,356.0,-23.175975799560547,24.07761573791504,0.0,207.14337158203125,-209.24667358398438,145.54641723632812,-19.441679000854492,20.316621780395508,0.0
1239,-2.951904296875,-2.84375,-5.946044921875,479.0,-483.0,315.0,-23.189069747924805,24.1258602142334,0.0,207.179931640625,-209.28353881835938,145.57046508789062,-19.432397842407227,20.307483673095703,0.0
1244,-2.952880859375,-2.845703125,-5.951171875,487.0,-487.0,348.0,-23.187612533569336,24.11520767211914,0.0,207.21710205078125,-209.32070922851562,145.59703063964844,-19.422536849975586,20.298002243041992,0.0
1249,-2.9501953125,-2.84521484375,-5.955078125,492.0,-494.0,332.0,-23.176856994628906,24.08504867553711,0.0,207.25465393066406,-209.35841369628906,145.62237548828125,-19.412261962890625,20.287811279296875,0.0
1254,-2.950439453125,-2.842529296875,-5.95166015625,485.0,-493.0,348.0,-23.1664981842041,24.100543975830078,0.0,207.2916717529297,-209.3960418701172,145.64894104003906,-19.402488708496094,20.277851104736328,0.0
1259,-2.949951171875,-2.84228515625,-5.963623046875,472.0,-494.0,321.0,-23.131996154785156,24.06243896484375,0.0,207.32769775390625,-209.43374633789062,145.67344665527344,-19.393495559692383,20.26758575439453,0.0
1264,-2.947509765625,-2.845703125,-5.947021484375,471.0,-489.0,335.0,-23.206682205200195,24.088449478149414,0.0,207.3636474609375,-209.4710693359375,145.6990203857422,-19.385150909423828,20.257930755615234,0.0
1269,-2.949462890625,-2.844970703125,-5.9462890625,491.0,-503.0,344.0,-23.200681686401367,24.105758666992188,0.0,207.401123046875,-209.50946044921875,145.72528076171875,-19.37527847290039,20.247379302978516,0.0
1274,-2.94921875,-2.840576171875,-5.952392578125,477.0,-484.0,312.0,-23.15190315246582,24.09229278564453,0.0,207.43753051757812,-209.54640197753906,145.7490997314453,-19.366161346435547,20.238218307495117,0.0
1279,-2.9521484375,-2.842529296875,-5.95166015625,485.0,-503.0,322.0,-23.16413116455078,24.112913131713867,0.0,207.47454833984375,-209.5847930908203,145.773681640625,-19.3565616607666,20.22780418395996,0.0
1284,-2.952392578125,-2.8447265625,-5.95654296875,506.0,-485.0,342.0,-23.16616439819336,24.097349166870117,0.0,207.51316833496094,-209.62181091308594,145.79978942871094,-19.345428466796875,20.21868896484375,0.0
1289,-2.949951171875,-2.8427734375,-5.95166015625,464.0,-513.0,339.0,-23.168954849243164,24.096668243408203,0.0,207.548583984375,-209.6609649658203,145.82566833496094,-19.33755111694336,20.207487106323242,0.0
1294,-2.953369140625,-2.848388671875,-5.951171875,482.0,-492.0,329.0,-23.206501007080078,24.114988327026367,0.0,207.5853729248047,-209.69851684570312,145.8507843017578,-19.32860565185547,20.19805908203125,0.0
1299,-2.9521484375,-2.846923828125,-5.959716796875,502.0,-508.0,334.0,-23.173641204833984,24.083261489868164,0.0,207.62368774414062,-209.73728942871094,145.87628173828125,-19.317949295043945,20.18723487854004,0.0
1304,-2.948974609375,-2.848388671875,-5.95458984375,477.0,-467.0,329.0,-23.203033447265625,24.07321548461914,0.0,207.66009521484375,-209.77293395996094,145.90139770507812,-19.3094482421875,20.17949867248535,0.0
1309,-2.9482421875,-2.844482421875,-5.947509765625,491.0,-477.0,325.0,-23.195398330688477,24.09403419494629,0.0,207.69757080078125,-209.80934143066406,145.92620849609375,-19.29986572265625,20.17118263244629,0.0
1315,-2.95166015625,-2.84521484375,-5.953369140625,451.0,-472.0,327.0,-23.179603576660156,24.100635528564453,0.0,207.73199462890625,-209.84536743164062,145.951171875,-19.293245315551758,20.1633243560791,0.0
1320,-2.949951171875,-2.84619140625,-5.955810546875,485.0,-493.0,306.0,-23.182260513305664,24.079784393310547,0.0,207.77642822265625,-209.89053344726562,145.9792022705078,-19.276813507080078,20.146360397338867,0.0
1325,-2.956298828125,-2.84423828125,-5.94677734375,463.0,-501.0,317.0,-23.18447494506836,24.154842376708984,0.0,207.811767578125,-209.92877197265625,146.00340270996094,-19.269508361816406,20.136892318725586,0.0
1330,-2.94873046875,-2.841796875,-5.952392578125,486.0,-513.0,341.0,-23.161479949951172,24.087055206298828,0.0,207.84886169433594,-209.96792602539062,146.02943420410156,-19.26032257080078,20.126075744628906,0.0
1335,-2.953369140625,-2.84521484375,-5.9521484375,496.0,-491.0,330.0,-23.180646896362305,24.11656951904297,0.0,207.88671875,-210.00540161132812,146.05462646484375,-19.25055503845215,20.117185592651367,0.0
1340,-2.947265625,-2.844970703125,-5.948974609375,485.0,-491.0,327.0,-23.196210861206055,24.082000732421875,0.0,207.92373657226562,-210.04287719726562,146.07958984375,-19.241777420043945,20.108089447021484,0.0
1345,-2.95166015625,-2.840576171875,-5.949951171875,468.0,-483.0,320.0,-23.15534210205078,24.117101669311523,0.0,207.95945739746094,-210.07974243164062,146.10401916503906,-19.234037399291992,20.09988784790039,0.0
1350,-2.94873046875,-2.8466796875,-5.961669921875,501.0,-481.0,311.0,-23.171133041381836,24.053194046020508,0.0,207.99769592285156,-210.116455078125,146.1277618408203,-19.22393798828125,20.091419219970703,0.0
1355,-2.954345703125,-2.84375,-5.951171875,469.0,-479.0,327.0,-23.171344757080078,24.128536224365234,0.0,208.0334930419922,-210.15301513671875,146.15272521972656,-19.2163143157959,20.083669662475586,0.0
1360,-2.951171875,-2.84228515625,-5.948974609375,482.0,-479.0,356.0,-23.17121124267578,24.114036560058594,0.0,208.07028198242188,-210.1895751953125,146.17990112304688,-19.207733154296875,20.075849533081055,0.0
1365,-2.95166015625,-2.84375,-5.9541015625,485.0,-491.0,326.0,-23.166881561279297,24.100542068481445,0.0,208.1072998046875,-210.22705078125,146.2047882080078,-19.198930740356445,20.06705665588379,0.0
1370,-2.949951171875,-2.8427734375,-5.95166015625,481.0,-496.0,326.0,-23.168954849243164,24.096668243408203,0.0,208.14401245117188,-210.26490783691406,146.22967529296875,-19.190486907958984,20.05789566040039,0.0
1375,-2.9501953125,-2.845458984375,-5.9521484375,464.0,-495.0,342.0,-23.186826705932617,24.09326171875,0.0,208.17942810058594,-210.3026885986328,146.2557830810547,-19.183494567871094,20.048828125,0.0
1380,-2.949462890625,-2.843017578125,-5.9423828125,493.0,-511.0,322.0,-23.197372436523438,24.119916915893555,0.0,208.21705627441406,-210.34169006347656,146.28036499023438,-19.174406051635742,20.03877830505371,0.0
1385,-2.94775390625,-2.8408203125,-5.951904296875,505.0,-485.0,314.0,-23.157075881958008,24.08277130126953,0.0,208.25559997558594,-210.3787078857422,146.30433654785156,-19.164165496826172,20.030485153198242,0.0
1390,-2.9521484375,-2.8427734375,-5.94677734375,507.0,-500.0,331.0,-23.1795597076416,24.126850128173828,0.0,208.29429626464844,-210.4168701171875,146.32960510253906,-19.153982162475586,20.02140235900879,0.0
1395,-2.950439453125,-2.842529296875,-5.946044921875,504.0,-486.0,319.0,-23.182201385498047,24.116958618164062,0.0,208.332763671875,-210.45396423339844,146.3539581298828,-19.144094467163086,20.013351440429688,0.0
1400,-2.951416015625,-2.84765625,-5.947998046875,473.0,-509.0,346.0,-23.21276092529297,24.111148834228516,0.0,208.36886596679688,-210.49281311035156,146.38037109375,-19.13681983947754,20.00355339050293,0.0
1405,-2.953369140625,-2.844482421875,-5.9541015625,466.0,-489.0,336.0,-23.169851303100586,24.11188507080078,0.0,208.40443420410156,-210.53013610839844,146.40602111816406,-19.129804611206055,19.99532127380371,0.0
1410,-2.950927734375,-2.84765625,-5.95361328125,466.0,-495.0,330.0,-23.197723388671875,24.091217041015625,0.0,208.44000244140625,-210.5679168701172,146.43121337890625,-19.12301254272461,19.986526489257812,0.0
1415,-2.95263671875,-2.845458984375,-5.956787109375,484.0,-493.0,335.0,-23.17047882080078,24.097381591796875,0.0,208.47694396972656,-210.6055450439453,146.456787109375,-19.11469078063965,19.977968215942383,0.0
1420,-2.951171875,-2.840087890625,-5.958984375,486.0,-496.0,337.0,-23.127241134643555,24.087854385375977,0.0,208.5140380859375,-210.64340209960938,146.48251342773438,-19.105953216552734,19.969154357910156,0.0
1425,-2.9560546875,-2.843994140625,-5.9501953125,491.0,-488.0,337.0,-23.17348289489746,24.143415451049805,0.0,208.551513671875,-210.68064880371094,146.50823974609375,-19.09720230102539,19.96137809753418,0.0
1430,-2.949462890625,-2.84619140625,-5.958251953125,494.0,-486.0,338.0,-23.17611312866211,24.06913185119629,0.0,208.58921813964844,-210.71774291992188,146.53404235839844,-19.08828353881836,19.95326805114746,0.0
1435,-2.951416015625,-2.84765625,-5.947021484375,488.0,-499.0,323.0,-23.215496063232422,24.114002227783203,0.0,208.62646484375,-210.75582885742188,146.55870056152344,-19.080137252807617,19.944522857666016,0.0
1440,-2.94921875,-2.84423828125,-5.95751953125,475.0,-500.0,323.0,-23.164268493652344,24.072221755981445,0.0,208.6627197265625,-210.7939910888672,146.58335876464844,-19.07265853881836,19.93545150756836,0.0
1445,-2.9501953125,-2.84375,-5.94775390625,476.0,-469.0,318.0,-23.186660766601562,24.108488082885742,0.0,208.6990509033203,-210.8297882080078,146.60763549804688,-19.065292358398438,19.929027557373047,0.0
1451,-2.95068359375,-2.844482421875,-5.953857421875,490.0,-488.0,306.0,-23.17425537109375,24.09316635131836,0.0,208.7364501953125,-210.86703491210938,146.63099670410156,-19.05681037902832,19.92108154296875,0.0
1456,-2.95263671875,-2.84130859375,-5.952392578125,494.0,-491.0,322.0,-23.152509689331055,24.116008758544922,0.0,208.78170776367188,-210.91201782226562,146.66049194335938,-19.040504455566406,19.905742645263672,0.0
1461,-2.95166015625,-2.843994140625,-5.956298828125,469.0,-485.0,301.0,-23.16252326965332,24.093786239624023,0.0,208.8175048828125,-210.94903564453125,146.6834716796875,-19.033748626708984,19.89823341369629,0.0
1466,-2.95068359375,-2.845458984375,-5.9443359375,473.0,-499.0,326.0,-23.20801544189453,24.119626998901367,0.0,208.85360717773438,-210.98712158203125,146.70835876464844,-19.027034759521484,19.889877319335938,0.0
1471,-2.94873046875,-2.8408203125,-5.957275390625,499.0,-496.0,331.0,-23.14072036743164,24.074159622192383,0.0,208.89169311523438,-211.0249786376953,146.73362731933594,-19.017908096313477,19.8814697265625,0.0
1476,-2.95263671875,-2.843505859375,-5.951904296875,479.0,-501.0,352.0,-23.169889450073242,24.114368438720703,0.0,208.92825317382812,-211.06321716308594,146.760498046875,-19.010543823242188,19.873003005981445,0.0
1481,-2.94580078125,-2.84619140625,-5.95166015625,468.0,-475.0,317.0,-23.199623107910156,24.061851501464844,0.0,208.96397399902344,-211.09947204589844,146.78469848632812,-19.004255294799805,19.866182327270508,0.0
1486,-2.949951171875,-2.84619140625,-5.945556640625,475.0,-508.0,317.0,-23.210954666137695,24.10972785949707,0.0,209.00022888183594,-211.13824462890625,146.80889892578125,-18.997539520263672,19.857221603393555,0.0
1491,-2.94775390625,-2.843994140625,-5.940185546875,482.0,-483.0,325.0,-23.213031768798828,24.112594604492188,0.0,209.03701782226562,-211.17510986328125,146.83370971679688,-18.99033546447754,19.8502197265625,0.0
1496,-2.948486328125,-2.849365234375,-5.94482421875,485.0,-471.0,347.0,-23.238183975219727,24.096817016601562,0.0,209.07403564453125,-211.2110595703125,146.86019897460938,-18.983110427856445,19.84404945373535,0.0
1501,-2.94921875,-2.847412109375,-5.95068359375,489.0,-509.0,344.0,-23.206514358520508,24.087743759155273,0.0,209.11135864257812,-211.24990844726562,146.88645935058594,-18.97539520263672,19.834959030151367,0.0
1506,-2.949462890625,-2.843505859375,-5.94970703125,486.0,-510.0,336.0,-23.18043327331543,24.09781837463379,0.0,209.14845275878906,-211.28883361816406,146.912109375,-18.967761993408203,19.825908660888672,0.0
1511,-2.949951171875,-2.84521484375,-5.9521484375,505.0,-490.0,316.0,-23.185386657714844,24.091835021972656,0.0,209.18699645996094,-211.32623291015625,146.9362335205078,-18.958759307861328,19.818376541137695,0.0
1516,-2.952880859375,-2.847412109375,-5.949951171875,487.0,-512.0,340.0,-23.203479766845703,24.116384506225586,0.0,209.2241668701172,-211.3653106689453,146.96218872070312,-18.951290130615234,19.809383392333984,0.0
1521,-2.953857421875,-2.843994140625,-5.950927734375,496.0,-462.0,338.0,-23.174484252929688,24.125375747680664,0.0,209.26202392578125,-211.40057373046875,146.9879913330078,-18.942974090576172,19.804288864135742,0.0
1526,-2.951416015625,-2.845947265625,-5.953369140625,471.0,-489.0,334.0,-23.185277938842773,24.09784698486328,0.0,209.2979736328125,-211.43789672851562,147.01348876953125,-18.936668395996094,19.796974182128906,0.0
1531,-2.948974609375,-2.84521484375,-5.952880859375,485.0,-477.0,320.0,-23.1846923828125,24.082630157470703,0.0,209.33499145507812,-211.47430419921875,147.0379180908203,-18.929323196411133,19.790498733520508,0.0
1536,-2.95166015625,-2.839599609375,-5.94580078125,484.0,-481.0,336.0,-23.159818649291992,24.130611419677734,0.0,209.37193298339844,-211.51101684570312,147.06356811523438,-18.921916961669922,19.78407859802246,0.0
1541,-2.94873046875,-2.8466796875,-5.949951171875,466.0,-511.0,335.0,-23.203903198242188,24.087369918823242,0.0,209.40750122070312,-211.55001831054688,147.08914184570312,-18.916215896606445,19.775114059448242,0.0
1546,-2.949462890625,-2.848876953125,-5.9521484375,457.0,-469.0,355.0,-23.21274757385254,24.083189010620117,0.0,209.4423828125,-211.5858154296875,147.11624145507812,-18.91128158569336,19.769350051879883,0.0
1551,-2.951171875,-2.846435546875,-5.9501953125,481.0,-516.0,344.0,-23.19805335998535,24.10466957092285,0.0,209.47909545898438,-211.6251983642578,147.1425018310547,-18.904443740844727,19.760196685791016,0.0
1556,-2.948974609375,-2.84521484375,-5.946044921875,486.0,-481.0,323.0,-23.20382308959961,24.10259437561035,0.0,209.5161895751953,-211.6619110107422,147.1671600341797,-18.89729881286621,19.753726959228516,0.0
1561,-2.95166015625,-2.845458984375,-5.948486328125,481.0,-485.0,334.0,-23.195039749145508,24.11456298828125,0.0,209.5529022216797,-211.6989288330078,147.19265747070312,-18.890506744384766,19.747066497802734,0.0
1566,-2.95068359375,-2.845458984375,-5.951416015625,484.0,-477.0,319.0,-23.188199996948242,24.098934173583984,0.0,209.58984375,-211.73533630371094,147.21701049804688,-18.88347053527832,19.740936279296875,0.0
1571,-2.947998046875,-2.845703125,-5.94775390625,501.0,-510.0,316.0,-23.20395278930664,24.089847564697266,0.0,209.62808227539062,-211.77426147460938,147.2411346435547,-18.875289916992188,19.732269287109375,0.0
1576,-2.94775390625,-2.847412109375,-5.948974609375,485.0,-465.0,313.0,-23.21333122253418,24.08212661743164,0.0,209.66510009765625,-211.80975341796875,147.26502990722656,-18.868427276611328,19.727005004882812,0.0
1581,-2.94775390625,-2.844970703125,-5.953125,479.0,-486.0,335.0,-23.18391990661621,24.073421478271484,0.0,209.70166015625,-211.8468475341797,147.2906036376953,-18.861848831176758,19.720109939575195,0.0
1587,-2.947509765625,-2.842529296875,-5.94873046875,490.0,-484.0,341.0,-23.17875099182129,24.087890625,0.0,209.7390594482422,-211.8837890625,147.31663513183594,-18.854433059692383,19.713499069213867,0.0
1592,-2.951171875,-2.847412109375,-5.955078125,488.0,-505.0,305.0,-23.191509246826172,24.08905029296875,0.0,209.7837677001953,-211.9300537109375,147.34457397460938,-18.83997917175293,19.697763442993164,0.0
1597,-2.947265625,-2.8447265625,-5.953857421875,503.0,-484.0,341.0,-23.180767059326172,24.06808853149414,0.0,209.82215881347656,-211.9669952392578,147.37060546875,-18.831796646118164,19.691225051879883,0.0
1602,-2.948974609375,-2.847900390625,-5.949951171875,483.0,-482.0,344.0,-23.212461471557617,24.087430953979492,0.0,209.85902404785156,-212.0037841796875,147.39686584472656,-18.825389862060547,19.685001373291016,0.0
1607,-2.949951171875,-2.846923828125,-5.952880859375,482.0,-483.0,322.0,-23.195791244506836,24.087312698364258,0.0,209.89581298828125,-212.0406494140625,147.42144775390625,-18.818973541259766,19.678728103637695,0.0
1612,-2.948974609375,-2.846923828125,-5.947021484375,470.0,-488.0,338.0,-23.21354866027832,24.09735107421875,0.0,209.9316864013672,-212.07789611816406,147.44725036621094,-18.81361961364746,19.67217445373535,0.0
1617,-2.946533203125,-2.84814453125,-5.953369140625,495.0,-479.0,338.0,-23.20805549621582,24.059446334838867,0.0,209.96946716308594,-212.1144561767578,147.47305297851562,-18.806354522705078,19.66607093811035,0.0
1622,-2.9521484375,-2.847412109375,-5.9541015625,483.0,-486.0,334.0,-23.192886352539062,24.098962783813477,0.0,210.00633239746094,-212.15155029296875,147.49855041503906,-18.799928665161133,19.65973663330078,0.0
1627,-2.951171875,-2.844970703125,-5.958740234375,499.0,-501.0,320.0,-23.163496017456055,24.081768035888672,0.0,210.04441833496094,-212.18978881835938,147.52297973632812,-18.792118072509766,19.652177810668945,0.0
1632,-2.9482421875,-2.844970703125,-5.94970703125,463.0,-516.0,329.0,-23.192806243896484,24.086933135986328,0.0,210.0797576904297,-212.2291717529297,147.548095703125,-18.78727912902832,19.6435546875,0.0
1637,-2.94970703125,-2.847900390625,-5.9423828125,497.0,-488.0,317.0,-23.232650756835938,24.114845275878906,0.0,210.11769104003906,-212.26641845703125,147.57229614257812,-18.780155181884766,19.637290954589844,0.0
1642,-2.953125,-2.84521484375,-5.95361328125,482.0,-488.0,340.0,-23.176891326904297,24.11052131652832,0.0,210.15447998046875,-212.3036651611328,147.59825134277344,-18.773820877075195,19.631027221679688,0.0
1647,-2.953125,-2.84326171875,-5.9541015625,505.0,-518.0,325.0,-23.16129493713379,24.111820220947266,0.0,210.19302368164062,-212.34320068359375,147.62306213378906,-18.76566505432129,19.622528076171875,0.0
1652,-2.94970703125,-2.84765625,-5.957275390625,492.0,-520.0,354.0,-23.189172744750977,24.071704864501953,0.0,210.23057556152344,-212.3828887939453,147.65008544921875,-18.758729934692383,19.6136474609375,0.0
1657,-2.9501953125,-2.84375,-5.9482421875,501.0,-465.0,331.0,-23.18529510498047,24.1070613861084,0.0,210.26881408691406,-212.4183807373047,147.67535400390625,-18.75111961364746,19.60922622680664,0.0
1662,-2.951416015625,-2.8466796875,-5.9541015625,508.0,-482.0,309.0,-23.188566207885742,24.09468650817871,0.0,210.30758666992188,-212.45516967773438,147.69894409179688,-18.743040084838867,19.60344696044922,0.0
1667,-2.950439453125,-2.846435546875,-5.948486328125,479.0,-471.0,341.0,-23.203853607177734,24.104360580444336,0.0,210.34414672851562,-212.49111938476562,147.7249755859375,-18.737306594848633,19.598596572875977,0.0
1672,-2.956787109375,-2.844482421875,-5.947509765625,494.0,-488.0,329.0,-23.183530807495117,24.1558895111084,0.0,210.38185119628906,-212.5283660888672,147.75009155273438,-18.730323791503906,19.59282875061035,0.0
1677,-2.94970703125,-2.846435546875,-5.947265625,470.0,-477.0,323.0,-23.208288192749023,24.102624893188477,0.0,210.417724609375,-212.5647735595703,147.77474975585938,-18.725366592407227,19.58755874633789,0.0
1682,-2.95068359375,-2.84375,-5.939697265625,474.0,-497.0,317.0,-23.208541870117188,24.135595321655273,0.0,210.4539031982422,-212.6027069091797,147.7989501953125,-18.720129013061523,19.58102035522461,0.0
1687,-2.9501953125,-2.84423828125,-5.9453125,503.0,-489.0,338.0,-23.19705581665039,24.11494255065918,0.0,210.49229431152344,-212.64002990722656,147.8247528076172,-18.712636947631836,19.574979782104492,0.0
1692,-2.94873046875,-2.8447265625,-5.947998046875,480.0,-503.0,334.0,-23.195133209228516,24.095802307128906,0.0,210.5289306640625,-212.6784210205078,147.85025024414062,-18.706912994384766,19.56777572631836,0.0
1697,-2.94970703125,-2.844970703125,-5.946044921875,496.0,-515.0,340.0,-23.201025009155273,24.108240127563477,0.0,210.56678771972656,-212.7177276611328,147.87620544433594,-18.700044631958008,19.559783935546875,0.0
1702,-2.953125,-2.84716796875,-5.953125,483.0,-526.0,338.0,-23.192485809326172,24.109220504760742,0.0,210.60365295410156,-212.75787353515625,147.90200805664062,-18.694137573242188,19.551006317138672,0.0
1707,-2.951416015625,-2.841796875,-5.95458984375,502.0,-483.0,336.0,-23.151622772216797,24.100072860717773,0.0,210.6419677734375,-212.79473876953125,147.9276580810547,-18.686540603637695,19.545475006103516,0.0
1712,-2.951904296875,-2.847412109375,-5.955322265625,485.0,-496.0,342.0,-23.18981170654297,24.09363555908203,0.0,210.67898559570312,-212.8325958251953,147.95376586914062,-18.680532455444336,19.5389404296875,0.0
1717,-2.949462890625,-2.845458984375,-5.94921875,504.0,-505.0,322.0,-23.1960391998291,24.096515655517578,0.0,210.7174530029297,-212.8711395263672,147.9783477783203,-18.67315673828125,19.531776428222656,0.0
1723,-2.947265625,-2.843505859375,-5.952880859375,468.0,-475.0,342.0,-23.17460060119629,24.072641372680664,0.0,210.753173828125,-212.9073944091797,148.00445556640625,-18.66840362548828,19.526762008666992,0.0
1728,-2.949462890625,-2.848388671875,-5.949951171875,480.0,-476.0,331.0,-23.215341567993164,24.09028434753418,0.0,210.79714965820312,-212.9510040283203,148.03477478027344,-18.65584945678711,19.514684677124023,0.0
1733,-2.94921875,-2.84228515625,-5.95361328125,481.0,-488.0,331.0,-23.16094970703125,24.086341857910156,0.0,210.8338623046875,-212.98825073242188,148.06004333496094,-18.65019989013672,19.50895881652832,0.0
1738,-2.94873046875,-2.84375,-5.944091796875,484.0,-476.0,333.0,-23.198945999145508,24.108585357666016,0.0,210.8708038330078,-213.0245819091797,148.08546447753906,-18.644609451293945,19.504323959350586,0.0
1743,-2.94775390625,-2.846435546875,-5.953125,468.0,-508.0,341.0,-23.194595336914062,24.071378707885742,0.0,210.90652465820312,-213.0633544921875,148.1114959716797,-18.640230178833008,19.497028350830078,0.0
1748,-2.9482421875,-2.84521484375,-5.951904296875,492.0,-474.0,339.0,-23.188438415527344,24.080177307128906,0.0,210.94407653808594,-213.0995330810547,148.1373748779297,-18.63400650024414,19.492408752441406,0.0
1753,-2.95068359375,-2.84375,-5.951904296875,487.0,-489.0,343.0,-23.174375534057617,24.09989356994629,0.0,210.9812469482422,-213.13685607910156,148.16355895996094,-18.628095626831055,19.486804962158203,0.0
1758,-2.953857421875,-2.84375,-5.955078125,503.0,-494.0,327.0,-23.161109924316406,24.11358642578125,0.0,211.01963806152344,-213.174560546875,148.1885223388672,-18.62091064453125,19.480941772460938,0.0
1763,-2.950439453125,-2.84423828125,-5.952392578125,490.0,-492.0,327.0,-23.176908493041992,24.096019744873047,0.0,211.05703735351562,-213.2121124267578,148.21348571777344,-18.614856719970703,19.475139617919922,0.0
1768,-2.9541015625,-2.8447265625,-5.9443359375,504.0,-515.0,328.0,-23.197921752929688,24.145402908325195,0.0,211.0955047607422,-213.2514190673828,148.238525390625,-18.6079158782959,19.467960357666016,0.0
1773,-2.94873046875,-2.84326171875,-5.954345703125,491.0,-494.0,330.0,-23.166696548461914,24.079309463500977,0.0,211.1329803466797,-213.28912353515625,148.2637176513672,-18.601783752441406,19.461957931518555,0.0
1778,-2.95068359375,-2.84423828125,-5.9580078125,476.0,-501.0,333.0,-23.160879135131836,24.08139419555664,0.0,211.1693115234375,-213.32736206054688,148.2891387939453,-18.59678077697754,19.455469131469727,0.0
1783,-2.9501953125,-2.84375,-5.94677734375,492.0,-488.0,302.0,-23.189393997192383,24.111343383789062,0.0,211.2068634033203,-213.36460876464844,148.31219482421875,-18.59078025817871,19.45020294189453,0.0
1788,-2.949462890625,-2.843505859375,-5.955810546875,483.0,-489.0,326.0,-23.16337013244629,24.079994201660156,0.0,211.2437286376953,-213.4019317626953,148.3370819091797,-18.585315704345703,19.444673538208008,0.0
1793,-2.947998046875,-2.843505859375,-5.948486328125,499.0,-473.0,294.0,-23.185880661010742,24.090776443481445,0.0,211.2818145751953,-213.4380340576172,148.35952758789062,-18.578819274902344,19.440458297729492,0.0
1798,-2.950439453125,-2.842041015625,-5.94775390625,478.0,-508.0,321.0,-23.173858642578125,24.11264419555664,0.0,211.31829833984375,-213.476806640625,148.384033203125,-18.57386589050293,19.43375587463379,0.0
1803,-2.951416015625,-2.8447265625,-5.95361328125,456.0,-471.0,344.0,-23.175701141357422,24.098838806152344,0.0,211.3531036376953,-213.51275634765625,148.41029357910156,-18.57061767578125,19.429800033569336,0.0
1808,-2.9521484375,-2.84814453125,-5.946533203125,481.0,-503.0,329.0,-23.219404220581055,24.12004852294922,0.0,211.3898162841797,-213.5511474609375,148.43540954589844,-18.56578254699707,19.423580169677734,0.0
1813,-2.94775390625,-2.849853515625,-5.951416015625,476.0,-500.0,329.0,-23.22428321838379,24.071592330932617,0.0,211.4261474609375,-213.5893096923828,148.4605255126953,-18.561384201049805,19.41728973388672,0.0
1818,-2.9482421875,-2.8466796875,-5.94384765625,454.0,-486.0,321.0,-23.2216796875,24.101661682128906,0.0,211.46080017089844,-213.62640380859375,148.4850311279297,-18.55865478515625,19.412296295166016,0.0
1823,-2.9521484375,-2.849365234375,-5.952880859375,510.0,-498.0,315.0,-23.210529327392578,24.09980010986328,0.0,211.49972534179688,-213.66441345214844,148.5090789794922,-18.551612854003906,19.40640640258789,0.0
1828,-2.95068359375,-2.84423828125,-5.950439453125,472.0,-477.0,315.0,-23.182031631469727,24.103492736816406,0.0,211.53575134277344,-213.70082092285156,148.5331268310547,-18.54729652404785,19.402164459228516,0.0
1833,-2.951904296875,-2.84716796875,-5.9521484375,483.0,-490.0,337.0,-23.196910858154297,24.103242874145508,0.0,211.57261657714844,-213.73822021484375,148.55885314941406,-18.542266845703125,19.396953582763672,0.0
1838,-2.948486328125,-2.845458984375,-5.951171875,494.0,-477.0,351.0,-23.19192886352539,24.083742141723633,0.0,211.61032104492188,-213.77462768554688,148.5856475830078,-18.536394119262695,19.392621994018555,0.0
1843,-2.951416015625,-2.846923828125,-5.95703125,487.0,-488.0,307.0,-23.18215560913086,24.085798263549805,0.0,211.64749145507812,-213.81187438964844,148.6090850830078,-18.531015396118164,19.387489318847656,0.0
1848,-2.949462890625,-2.845703125,-5.947998046875,481.0,-456.0,362.0,-23.201236724853516,24.099740982055664,0.0,211.6842041015625,-213.8466796875,148.63671875,-18.526248931884766,19.384904861450195,0.0
1853,-2.948486328125,-2.84619140625,-5.94970703125,472.0,-488.0,344.0,-23.201366424560547,24.08699607849121,0.0,211.72023010253906,-213.88392639160156,148.66297912597656,-18.52219009399414,19.37981414794922,0.0
1859,-2.9521484375,-2.843994140625,-5.95068359375,487.0,-481.0,335.0,-23.17753791809082,24.11372184753418,0.0,211.7574005126953,-213.92063903808594,148.6885528564453,-18.516849517822266,19.37546157836914,0.0
1864,-2.953369140625,-2.84619140625,-5.9453125,493.0,-496.0,337.0,-23.206886291503906,24.135190963745117,0.0,211.8025665283203,-213.96607971191406,148.71942138671875,-18.503896713256836,19.36271095275879,0.0
1869,-2.9501953125,-2.8447265625,-5.940673828125,486.0,-494.0,333.0,-23.213611602783203,24.127830505371094,0.0,211.83966064453125,-214.0037841796875,148.74484252929688,-18.499073028564453,19.35765838623047,0.0
1874,-2.95068359375,-2.845458984375,-5.9541015625,487.0,-461.0,328.0,-23.180688858032227,24.09109115600586,0.0,211.8768310546875,-214.03897094726562,148.76988220214844,-18.493972778320312,19.354883193969727,0.0
1879,-2.952392578125,-2.844970703125,-5.952880859375,479.0,-495.0,343.0,-23.17817497253418,24.107704162597656,0.0,211.91339111328125,-214.07675170898438,148.7960662841797,-18.489486694335938,19.349651336669922,0.0
1884,-2.951416015625,-2.8447265625,-5.9541015625,484.0,-504.0,338.0,-23.17433738708496,24.097412109375,0.0,211.95033264160156,-214.11521911621094,148.82186889648438,-18.484617233276367,19.343692779541016,0.0
1889,-2.95166015625,-2.84423828125,-5.95361328125,487.0,-485.0,330.0,-23.171804428100586,24.101285934448242,0.0,211.9875030517578,-214.15223693847656,148.84706115722656,-18.47952651977539,19.339231491088867,0.0
1894,-2.95068359375,-2.845458984375,-5.9580078125,489.0,-493.0,321.0,-23.16977310180664,24.079692840576172,0.0,212.0248260498047,-214.1898651123047,148.87156677246094,-18.47429656982422,19.33403778076172,0.0
1899,-2.950927734375,-2.84619140625,-5.950927734375,477.0,-482.0,331.0,-23.194564819335938,24.101104736328125,0.0,212.0612335205078,-214.22665405273438,148.89683532714844,-18.470170974731445,19.329849243164062,0.0
1904,-2.954833984375,-2.84423828125,-5.946044921875,485.0,-495.0,317.0,-23.18855857849121,24.146385192871094,0.0,212.09825134277344,-214.26443481445312,148.92103576660156,-18.465415954589844,19.325002670288086,0.0
1909,-2.950927734375,-2.847412109375,-5.94091796875,478.0,-496.0,337.0,-23.231496810913086,24.1286563873291,0.0,212.13473510742188,-214.3022918701172,148.94676208496094,-18.461505889892578,19.319984436035156,0.0
1914,-2.94677734375,-2.846435546875,-5.9501953125,475.0,-499.0,313.0,-23.20414924621582,24.072856903076172,0.0,212.17098999023438,-214.3403778076172,148.9706573486328,-18.457656860351562,19.31438446044922,0.0
1919,-2.948974609375,-2.8447265625,-5.9462890625,491.0,-470.0,353.0,-23.1995792388916,24.102563858032227,0.0,212.20846557617188,-214.37625122070312,148.9976043701172,-18.452579498291016,19.311214447021484,0.0
1924,-2.95068359375,-2.844482421875,-5.94384765625,482.0,-483.0,332.0,-23.202260971069336,24.122421264648438,0.0,212.24525451660156,-214.41311645507812,149.02294921875,-18.44822883605957,19.307205200195312,0.0
1929,-2.946533203125,-2.845458984375,-5.951416015625,482.0,-487.0,351.0,-23.193952560424805,24.068889617919922,0.0,212.28204345703125,-214.45028686523438,149.04974365234375,-18.4438419342041,19.302549362182617,0.0
1934,-2.94775390625,-2.847412109375,-5.945068359375,498.0,-509.0,340.0,-23.22427749633789,24.093534469604492,0.0,212.32005310058594,-214.4891357421875,149.07569885253906,-18.4384708404541,19.296415328979492,0.0
1939,-2.949951171875,-2.843017578125,-5.94677734375,489.0,-486.0,346.0,-23.184391021728516,24.110599517822266,0.0,212.3573760986328,-214.52622985839844,149.10211181640625,-18.43353843688965,19.292173385620117,0.0
1944,-2.9453125,-2.844970703125,-5.946533203125,499.0,-481.0,329.0,-23.205759048461914,24.074981689453125,0.0,212.3954620361328,-214.5629425048828,149.12722778320312,-18.42801856994629,19.288089752197266,0.0
1949,-2.94775390625,-2.84814453125,-5.951171875,479.0,-481.0,332.0,-23.21251678466797,24.074691772460938,0.0,212.43202209472656,-214.5996551513672,149.15257263183594,-18.424089431762695,19.28402328491211,0.0
1954,-2.951171875,-2.844970703125,-5.953369140625,492.0,-469.0,333.0,-23.17850112915039,24.097444534301758,0.0,212.46957397460938,-214.6354522705078,149.17799377441406,-18.418962478637695,19.281042098999023,0.0
1959,-2.949462890625,-2.8408203125,-5.951416015625,490.0,-486.0,326.0,-23.15607452392578,24.096572875976562,0.0,212.50697326660156,-214.67254638671875,149.202880859375,-18.413862228393555,19.276777267456055,0.0
1964,-2.94970703125,-2.843994140625,-5.952392578125,492.0,-487.0,340.0,-23.176143646240234,24.0910587310791,0.0,212.54452514648438,-214.709716796875,149.2288360595703,-18.40877342224121,19.272418975830078,0.0
1969,-2.950927734375,-2.84814453125,-5.948974609375,487.0,-478.0,339.0,-23.214263916015625,24.10407829284668,0.0,212.58169555664062,-214.74620056152344,149.2547149658203,-18.404348373413086,19.26885223388672,0.0
1974,-2.94873046875,-2.84423828125,-5.95263671875,484.0,-502.0,312.0,-23.1785945892334,24.082937240600586,0.0,212.61863708496094,-214.78451538085938,149.27853393554688,-18.399930953979492,19.26333999633789,0.0
1979,-2.953857421875,-2.845703125,-5.95166015625,502.0,-487.0,327.0,-23.184892654418945,24.120847702026367,0.0,212.65695190429688,-214.82168579101562,149.30349731445312,-18.394214630126953,19.25925064086914,0.0
1984,-2.9521484375,-2.842529296875,-5.945556640625,497.0,-485.0,312.0,-23.181194305419922,24.13076400756836,0.0,212.69488525390625,-214.85870361328125,149.3273162841797,-18.388883590698242,19.255399703979492,0.0
1989,-2.9482421875,-2.84521484375,-5.9541015625,494.0,-480.0,336.0,-23.18229103088379,24.07376480102539,0.0,212.7325897216797,-214.8953399658203,149.35296630859375,-18.38381576538086,19.251562118530273,0.0
1995,-2.95068359375,-2.842041015625,-5.954345703125,497.0,-485.0,327.0,-23.15509605407715,24.09514617919922,0.0,212.77052307128906,-214.93235778808594,149.3779296875,-18.37836456298828,19.247509002685547,0.0
2000,-2.9521484375,-2.84326171875,-5.939208984375,493.0,-492.0,308.0,-23.204307556152344,24.14832305908203,0.0,212.81568908691406,-214.97743225097656,149.40614318847656,-18.36619758605957,19.235939025878906,0.0
2005,-2.950439453125,-2.84521484375,-5.957275390625,497.0,-486.0,321.0,-23.170377731323242,24.08040428161621,0.0,212.85362243652344,-215.0145263671875,149.43064880371094,-18.361045837402344,19.23189353942871,0.0
2010,-2.95166015625,-2.84375,-5.945556640625,472.0,-512.0,338.0,-23.19077491760254,24.125520706176758,0.0,212.8896484375,-215.05360412597656,149.45645141601562,-18.357955932617188,19.22620391845703,0.0
2015,-2.94775390625,-2.8447265625,-5.951416015625,481.0,-505.0,333.0,-23.186922073364258,24.078750610351562,0.0,212.92636108398438,-215.09214782714844,149.48187255859375,-18.354167938232422,19.22075843811035,0.0
2020,-2.951171875,-2.84765625,-5.952392578125,491.0,-508.0,341.0,-23.2007999420166,24.096548080444336,0.0,212.96383666992188,-215.13092041015625,149.50790405273438,-18.349735260009766,19.215234756469727,0.0
2025,-2.948974609375,-2.844482421875,-5.951171875,479.0,-492.0,333.0,-23.184133529663086,24.088640213012695,0.0,213.00039672851562,-215.16847229003906,149.5333251953125,-18.346120834350586,19.210899353027344,0.0
2030,-2.95361328125,-2.842041015625,-5.951416015625,474.0,-473.0,337.0,-23.159223556518555,24.124910354614258,0.0,213.0365753173828,-215.20457458496094,149.55905151367188,-18.342735290527344,19.208271026611328,0.0
2035,-2.949951171875,-2.843505859375,-5.94921875,479.0,-485.0,322.0,-23.181121826171875,24.102779388427734,0.0,213.07313537597656,-215.24159240722656,149.58363342285156,-18.33913230895996,19.204591751098633,0.0
2040,-2.94970703125,-2.847412109375,-5.950439453125,474.0,-495.0,347.0,-23.206520080566406,24.091989517211914,0.0,213.10931396484375,-215.2793731689453,149.61012268066406,-18.336097717285156,19.20009994506836,0.0
2045,-2.94873046875,-2.84375,-5.951171875,495.0,-531.0,331.0,-23.17913055419922,24.0878963470459,0.0,213.1470947265625,-215.3199005126953,149.63539123535156,-18.331298828125,19.192873001098633,0.0
2050,-2.94921875,-2.845458984375,-5.951904296875,486.0,-500.0,335.0,-23.18886375427246,24.08690643310547,0.0,213.18418884277344,-215.35806274414062,149.6609649658203,-18.327272415161133,19.188032150268555,0.0
2055,-2.9501953125,-2.843017578125,-5.95263671875,514.0,-479.0,315.0,-23.167667388916016,24.095243453979492,0.0,213.22341918945312,-215.39462280273438,149.6850128173828,-18.321001052856445,19.184864044189453,0.0
2060,-2.951904296875,-2.84423828125,-5.953125,488.0,-490.0,338.0,-23.17283058166504,24.104480743408203,0.0,213.2606658935547,-215.43202209472656,149.7108154296875,-18.316768646240234,19.180938720703125,0.0
2065,-2.94921875,-2.845458984375,-5.954833984375,486.0,-472.0,352.0,-23.1806697845459,24.078353881835938,0.0,213.29776000976562,-215.46804809570312,149.73768615722656,-18.312763214111328,19.17822265625,0.0
2070,-2.951171875,-2.844970703125,-5.94775390625,474.0,-469.0,339.0,-23.1942081451416,24.11385154724121,0.0,213.3339385986328,-215.50384521484375,149.76356506347656,-18.30978012084961,19.175983428955078,0.0
2075,-2.95166015625,-2.84423828125,-5.948974609375,498.0,-478.0,312.0,-23.184772491455078,24.11484146118164,0.0,213.3719482421875,-215.5403289794922,149.78738403320312,-18.3049259185791,19.17307472229004,0.0
2080,-2.947509765625,-2.845703125,-5.95654296875,481.0,-506.0,318.0,-23.180036544799805,24.0606632232666,0.0,213.40866088867188,-215.57894897460938,149.81166076660156,-18.301353454589844,19.167692184448242,0.0
2085,-2.950927734375,-2.84912109375,-5.94970703125,489.0,-474.0,346.0,-23.219327926635742,24.100574493408203,0.0,213.44598388671875,-215.61512756347656,149.83807373046875,-18.297456741333008,19.165035247802734,0.0
2090,-2.95068359375,-2.844482421875,-5.950927734375,479.0,-489.0,330.0,-23.18244743347168,24.10172462463379,0.0,213.4825439453125,-215.65245056152344,149.86326599121094,-18.29408836364746,19.161258697509766,0.0
2095,-2.94873046875,-2.845947265625,-5.94775390625,491.0,-497.0,337.0,-23.2047176361084,24.094810485839844,0.0,213.52001953125,-215.6903839111328,149.8889923095703,-18.28997802734375,19.15684700012207,0.0
2100,-2.952880859375,-2.84619140625,-5.943115234375,472.0,-488.0,329.0,-23.21371841430664,24.13808250427246,0.0,213.55604553222656,-215.72763061523438,149.9141082763672,-18.287391662597656,19.153432846069336,0.0
2105,-2.951416015625,-2.843994140625,-5.95068359375,488.0,-502.0,340.0,-23.178552627563477,24.108421325683594,0.0,213.59329223632812,-215.7659454345703,149.9400634765625,-18.283363342285156,19.148775100708008,0.0
2110,-2.9501953125,-2.8447265625,-5.950927734375,473.0,-490.0,323.0,-23.184904098510742,24.097848892211914,0.0,213.62939453125,-215.8033447265625,149.9647216796875,-18.28053855895996,19.14497947692871,0.0
2115,-2.953125,-2.847412109375,-5.95068359375,494.0,-507.0,310.0,-23.201091766357422,24.116010665893555,0.0,213.66709899902344,-215.842041015625,149.98838806152344,-18.276241302490234,19.140037536621094,0.0
2120,-2.948486328125,-2.843994140625,-5.948486328125,492.0,-490.0,324.0,-23.188762664794922,24.093631744384766,0.0,213.70465087890625,-215.8794403076172,150.01312255859375,-18.272035598754883,19.136260986328125,0.0
2125,-2.949462890625,-2.84521484375,-5.959716796875,479.0,-501.0,308.0,-23.16490936279297,24.066221237182617,0.0,213.7412109375,-215.9176788330078,150.03663635253906,-18.2686767578125,19.131484985351562,0.0
2131,-2.949462890625,-2.8466796875,-5.9453125,464.0,-499.0,351.0,-23.215877532958984,24.10622215270996,0.0,213.77662658691406,-215.9557647705078,150.0634307861328,-18.266815185546875,19.127155303955078,0.0
2136,-2.95068359375,-2.841552734375,-5.952880859375,501.0,-470.0,338.0,-23.155630111694336,24.100107192993164,0.0,213.82252502441406,-215.9988250732422,150.09439086914062,-18.254247665405273,19.117977142333984,0.0
2141,-2.94970703125,-2.84716796875,-5.9541015625,495.0,-482.0,347.0,-23.19449234008789,24.081642150878906,0.0,213.8603057861328,-216.03561401367188,150.12088012695312,-18.250072479248047,19.114944458007812,0.0
2146,-2.95263671875,-2.84033203125,-5.952392578125,498.0,-488.0,310.0,-23.145389556884766,24.117372512817383,0.0,213.8983154296875,-216.07286071777344,150.14454650878906,-18.245359420776367,19.111711502075195,0.0
2151,-2.951171875,-2.843017578125,-5.95068359375,499.0,-475.0,328.0,-23.17177391052246,24.108016967773438,0.0,213.9364013671875,-216.10911560058594,150.16958618164062,-18.240772247314453,19.109416961669922,0.0
2156,-2.948486328125,-2.843994140625,-5.9462890625,480.0,-485.0,321.0,-23.194913864135742,24.100051879882812,0.0,213.97303771972656,-216.14613342285156,150.194091796875,-18.23780632019043,19.1063175201416,0.0
2161,-2.953857421875,-2.845458984375,-5.94921875,475.0,-498.0,333.0,-23.189939498901367,24.128324508666992,0.0,214.00929260253906,-216.18414306640625,150.21951293945312,-18.235200881958008,19.10243797302246,0.0
2166,-2.94970703125,-2.849853515625,-5.955078125,472.0,-507.0,322.0,-23.211320877075195,24.07504653930664,0.0,214.04531860351562,-216.22283935546875,150.2440948486328,-18.23297691345215,19.097536087036133,0.0
2171,-2.953125,-2.846435546875,-5.953125,480.0,-492.0,330.0,-23.187150955200195,24.110244750976562,0.0,214.0819549560547,-216.26039123535156,150.269287109375,-18.229990005493164,19.09403419494629,0.0
2176,-2.94873046875,-2.847412109375,-5.953125,491.0,-522.0,331.0,-23.20035743713379,24.077083587646484,0.0,214.1194305419922,-216.30023193359375,150.2945556640625,-18.226272583007812,19.08805274963379,0.0
2181,-2.949951171875,-2.84228515625,-5.9501953125,487.0,-486.0,339.0,-23.169490814208984,24.10163116455078,0.0,214.15660095214844,-216.3373260498047,150.3204345703125,-18.222667694091797,19.084999084472656,0.0
2186,-2.951904296875,-2.846435546875,-5.95361328125,489.0,-488.0,317.0,-23.187477111816406,24.099987030029297,0.0,214.1939239501953,-216.37457275390625,150.34463500976562,-18.219051361083984,19.081796646118164,0.0
2191,-2.949462890625,-2.8447265625,-5.9482421875,517.0,-503.0,303.0,-23.19343376159668,24.100393295288086,0.0,214.23338317871094,-216.4129638671875,150.36776733398438,-18.21337127685547,19.07747459411621,0.0
2196,-2.951171875,-2.845947265625,-5.94873046875,460.0,-474.0,338.0,-23.198593139648438,24.10963249206543,0.0,214.26849365234375,-216.4491424560547,150.39356994628906,-18.212080001831055,19.075437545776367,0.0
2201,-2.95068359375,-2.84326171875,-5.94775390625,497.0,-492.0,341.0,-23.182422637939453,24.11270523071289,0.0,214.30642700195312,-216.4866943359375,150.4196014404297,-18.207876205444336,19.072063446044922,0.0
2206,-2.9501953125,-2.846435546875,-5.953857421875,505.0,-470.0,321.0,-23.189163208007812,24.0869083404541,0.0,214.344970703125,-216.52256774902344,150.44410705566406,-18.20313262939453,19.070199966430664,0.0
2211,-2.951416015625,-2.839599609375,-5.951416015625,490.0,-510.0,291.0,-23.144466400146484,24.11241340637207,0.0,214.3823699951172,-216.56149291992188,150.46632385253906,-18.199251174926758,19.06548309326172,0.0
2216,-2.951416015625,-2.844970703125,-5.947998046875,480.0,-471.0,331.0,-23.193185806274414,24.114904403686523,0.0,214.41900634765625,-216.59744262695312,150.49159240722656,-18.196475982666016,19.063764572143555,0.0
2221,-2.951904296875,-2.845947265625,-5.95458984375,494.0,-484.0,320.0,-23.181190490722656,24.097816467285156,0.0,214.4567108154297,-216.63438415527344,150.51602172851562,-18.19257164001465,19.060951232910156,0.0
2226,-2.948974609375,-2.846923828125,-5.94921875,492.0,-479.0,320.0,-23.207395553588867,24.09093475341797,0.0,214.4942626953125,-216.6709442138672,150.5404510498047,-18.189016342163086,19.058483123779297,0.0
2231,-2.951416015625,-2.843017578125,-5.9521484375,475.0,-476.0,315.0,-23.167341232299805,24.10550308227539,0.0,214.530517578125,-216.707275390625,150.5644989013672,-18.186498641967773,19.056352615356445,0.0
2236,-2.951171875,-2.841796875,-5.955322265625,508.0,-499.0,342.0,-23.14991569519043,24.096166610717773,0.0,214.5692901611328,-216.745361328125,150.59060668945312,-18.181373596191406,19.05242347717285,0.0
2241,-2.950927734375,-2.84326171875,-5.950439453125,482.0,-492.0,347.0,-23.17457389831543,24.10662269592285,0.0,214.6060791015625,-216.7829132080078,150.61709594726562,-18.17841339111328,19.049116134643555,0.0
2246,-2.950439453125,-2.84423828125,-5.94873046875,470.0,-501.0,320.0,-23.187150955200195,24.106718063354492,0.0,214.64195251464844,-216.82115173339844,150.6415252685547,-18.176464080810547,19.045143127441406,0.0
2251,-2.954345703125,-2.847900390625,-5.947265625,501.0,-511.0,315.0,-23.2125186920166,24.134153366088867,0.0,214.68019104003906,-216.8601531982422,150.6655731201172,-18.172340393066406,19.040618896484375,0.0
2256,-2.95361328125,-2.84326171875,-5.9482421875,492.0,-518.0,337.0,-23.176990509033203,24.132488250732422,0.0,214.71774291992188,-216.89968872070312,150.69129943847656,-18.168682098388672,19.03557777404785,0.0
2261,-2.94970703125,-2.8447265625,-5.9521484375,488.0,-499.0,332.0,-23.182167053222656,24.090749740600586,0.0,214.75498962402344,-216.93777465820312,150.71664428710938,-18.165382385253906,19.03172492980957,0.0
2267,-2.9541015625,-2.85009765625,-5.951171875,491.0,-475.0,331.0,-23.217933654785156,24.117895126342773,0.0,214.79246520996094,-216.97402954101562,150.74191284179688,-18.162111282348633,19.029895782470703,0.0
2272,-2.948974609375,-2.845703125,-5.9462890625,478.0,-478.0,343.0,-23.20669937133789,24.101198196411133,0.0,214.8362579345703,-217.017822265625,150.77333068847656,-18.152616500854492,19.02058219909668,0.0
2277,-2.947265625,-2.84619140625,-5.95703125,492.0,-474.0,335.0,-23.182565689086914,24.056793212890625,0.0,214.87380981445312,-217.0540008544922,150.7989044189453,-18.14920425415039,19.018579483032227,0.0
2282,-2.951171875,-2.844970703125,-5.94677734375,495.0,-500.0,329.0,-23.196941375732422,24.11670684814453,0.0,214.91159057617188,-217.0921630859375,150.8240203857422,-18.145679473876953,19.0150146484375,0.0
2287,-2.94921875,-2.840576171875,-5.956298828125,477.0,-473.0,323.0,-23.140993118286133,24.080883026123047,0.0,214.947998046875,-217.12826538085938,150.8486785888672,-18.143159866333008,19.013273239135742,0.0
2292,-2.95361328125,-2.84033203125,-5.951171875,479.0,-474.0,334.0,-23.147445678710938,24.128009796142578,0.0,214.98455810546875,-217.16444396972656,150.87417602539062,-18.140541076660156,19.01177978515625,0.0
2297,-2.951904296875,-2.843017578125,-5.94921875,485.0,-474.0,320.0,-23.17485237121582,24.11760139465332,0.0,215.02157592773438,-217.20062255859375,150.8986053466797,-18.137664794921875,19.01021957397461,0.0
2302,-2.951416015625,-2.845458984375,-5.955078125,463.0,-482.0,329.0,-23.176944732666016,24.09354019165039,0.0,215.05691528320312,-217.23741149902344,150.92372131347656,-18.136484146118164,19.00789451599121,0.0
2307,-2.94970703125,-2.845458984375,-5.949951171875,499.0,-468.0,319.0,-23.19365119934082,24.09614372253418,0.0,215.09500122070312,-217.27313232421875,150.9480743408203,-18.132688522338867,19.00665855407715,0.0
2312,-2.948486328125,-2.842041015625,-5.95166015625,485.0,-495.0,318.0,-23.1656436920166,24.087085723876953,0.0,215.13201904296875,-217.3109130859375,150.97235107421875,-18.129785537719727,19.00331687927246,0.0
2317,-2.952392578125,-2.84326171875,-5.960693359375,495.0,-495.0,323.0,-23.143909454345703,24.087278366088867,0.0,215.1697998046875,-217.34869384765625,150.99700927734375,-18.125991821289062,18.99999237060547,0.0
2322,-2.95068359375,-2.842529296875,-5.948974609375,481.0,-508.0,332.0,-23.173667907714844,24.11016082763672,0.0,215.20651245117188,-217.38746643066406,151.02235412597656,-18.12347984313965,18.995853424072266,0.0
2327,-2.947998046875,-2.84765625,-5.950927734375,488.0,-505.0,346.0,-23.20930290222168,24.077852249145508,0.0,215.24375915527344,-217.42601013183594,151.04876708984375,-18.12068748474121,18.99174690246582,0.0
2332,-2.950927734375,-2.843017578125,-5.947998046875,480.0,-484.0,319.0,-23.17962074279785,24.11410140991211,0.0,215.2803955078125,-217.46295166015625,151.0731201171875,-18.118314743041992,18.989498138427734,0.0
2337,-2.95068359375,-2.844482421875,-5.94873046875,505.0,-492.0,330.0,-23.1885929107666,24.108144760131836,0.0,215.31893920898438,-217.50050354003906,151.0983123779297,-18.114118576049805,18.98661231994629,0.0
2342,-2.9482421875,-2.84619140625,-5.955322265625,482.0,-482.0,337.0,-23.185993194580078,24.0688419342041,0.0,215.35572814941406,-217.53729248046875,151.12403869628906,-18.111671447753906,18.984233856201172,0.0
2347,-2.94921875,-2.84619140625,-5.955322265625,495.0,-478.0,345.0,-23.184640884399414,24.075908660888672,0.0,215.3935089111328,-217.5737762451172,151.15037536621094,-18.108240127563477,18.982215881347656,0.0
2352,-2.95263671875,-2.84375,-5.9482421875,482.0,-485.0,327.0,-23.18190574645996,24.12473487854004,0.0,215.4302978515625,-217.6107940673828,151.1753387451172,-18.105792999267578,18.980005264282227,0.0
2357,-2.94921875,-2.84521484375,-5.9462890625,501.0,-502.0,347.0,-23.202800750732422,24.103649139404297,0.0,215.46853637695312,-217.64910888671875,151.2018280029297,-18.10205841064453,18.97637367248535,0.0
2362,-2.949951171875,-2.844482421875,-5.9462890625,497.0,-482.0,339.0,-23.196441650390625,24.10997772216797,0.0,215.5064697265625,-217.68589782714844,151.2277069091797,-18.098604202270508,18.974319458007812,0.0
2367,-2.95166015625,-2.841552734375,-5.956298828125,471.0,-503.0,312.0,-23.144733428955078,24.097187042236328,0.0,215.54241943359375,-217.7242889404297,151.25152587890625,-18.096792221069336,18.970596313476562,0.0
2372,-2.948974609375,-2.845458984375,-5.9521484375,471.0,-465.0,337.0,-23.188520431518555,24.084426879882812,0.0,215.578369140625,-217.75978088378906,151.27725219726562,-18.09528160095215,18.969688415527344,0.0
2377,-2.94873046875,-2.842041015625,-5.9521484375,491.0,-481.0,330.0,-23.163942337036133,24.087427139282227,0.0,215.6158447265625,-217.79649353027344,151.3024444580078,-18.09209442138672,18.967588424682617,0.0
2382,-2.952392578125,-2.840576171875,-5.950927734375,501.0,-493.0,322.0,-23.151599884033203,24.11954689025879,0.0,215.65408325195312,-217.83412170410156,151.3270263671875,-18.088083267211914,18.96480369567871,0.0
2387,-2.95068359375,-2.8427734375,-5.950927734375,505.0,-495.0,328.0,-23.169986724853516,24.104110717773438,0.0,215.692626953125,-217.8719024658203,151.35206604003906,-18.083913803100586,18.961776733398438,0.0
2392,-2.945556640625,-2.842041015625,-5.949951171875,477.0,-491.0,344.0,-23.174482345581055,24.070859909057617,0.0,215.72903442382812,-217.9093780517578,151.37832641601562,-18.08192253112793,18.958845138549805,0.0
2397,-2.95458984375,-2.845703125,-5.954833984375,479.0,-485.0,326.0,-23.175006866455078,24.116870880126953,0.0,215.76559448242188,-217.94639587402344,151.40321350097656,-18.079788208007812,18.956693649291992,0.0
2403,-2.9482421875,-2.844970703125,-5.94921875,479.0,-473.0,334.0,-23.19417381286621,24.088359832763672,0.0,215.80215454101562,-217.9824981689453,151.4287109375,-18.07779312133789,18.955270767211914,0.0
2408,-2.948974609375,-2.84716796875,-5.951416015625,487.0,-466.0,317.0,-23.20302391052246,24.084178924560547,0.0,215.84677124023438,-218.0251922607422,151.45774841308594,-18.067974090576172,18.9473876953125,0.0
2413,-2.95263671875,-2.841796875,-5.95703125,481.0,-472.0,311.0,-23.143117904663086,24.10177230834961,0.0,215.88348388671875,-218.06121826171875,151.4814910888672,-18.06565284729004,18.9462833404541,0.0
2418,-2.951904296875,-2.846923828125,-5.9482421875,481.0,-478.0,331.0,-23.2060604095459,24.114994049072266,0.0,215.92019653320312,-218.0977020263672,151.5067596435547,-18.063764572143555,18.944812774658203,0.0
2423,-2.947265625,-2.84619140625,-5.957275390625,494.0,-475.0,329.0,-23.181882858276367,24.056081771850586,0.0,215.95790100097656,-218.1339569091797,151.53187561035156,-18.06073570251465,18.943178176879883,0.0
2428,-2.948974609375,-2.84619140625,-5.94775390625,491.0,-494.0,358.0,-23.206157684326172,24.096235275268555,0.0,215.99537658691406,-218.17166137695312,151.5592041015625,-18.0581111907959,18.940378189086914,0.0
2433,-2.951416015625,-2.845703125,-5.944091796875,482.0,-495.0,287.0,-23.209461212158203,24.125303268432617,0.0,216.03216552734375,-218.20944213867188,151.58111572265625,-18.056203842163086,18.937711715698242,0.0
2438,-2.95068359375,-2.841796875,-5.950927734375,470.0,-473.0,332.0,-23.16286849975586,24.1054744720459,0.0,216.0680389404297,-218.24554443359375,151.60646057128906,-18.054901123046875,18.93659210205078,0.0
2443,-2.950439453125,-2.845947265625,-5.95361328125,483.0,-495.0,340.0,-23.185949325561523,24.090068817138672,0.0,216.1049041748047,-218.2833251953125,151.63241577148438,-18.052770614624023,18.93370246887207,0.0
2448,-2.95458984375,-2.848388671875,-5.953857421875,477.0,-511.0,319.0,-23.197296142578125,24.1159725189209,0.0,216.1413116455078,-218.32232666015625,151.65676879882812,-18.05118179321289,18.92978858947754,0.0
2453,-2.953369140625,-2.846435546875,-5.948486328125,497.0,-487.0,311.0,-23.199783325195312,24.125566482543945,0.0,216.1792449951172,-218.3594970703125,151.68051147460938,-18.048097610473633,18.927778244018555,0.0
2458,-2.94921875,-2.8427734375,-5.952392578125,482.0,-485.0,347.0,-23.167922973632812,24.0892276763916,0.0,216.21603393554688,-218.39651489257812,151.70700073242188,-18.04595184326172,18.925683975219727,0.0
2463,-2.9521484375,-2.8466796875,-5.946533203125,464.0,-494.0,307.0,-23.20872688293457,24.122098922729492,0.0,216.25144958496094,-218.43421936035156,151.73043823242188,-18.045454025268555,18.923137664794922,0.0
2468,-2.951171875,-2.84228515625,-5.95166015625,477.0,-496.0,329.0,-23.16370391845703,24.106185913085938,0.0,216.28785705566406,-218.47207641601562,151.75555419921875,-18.04366683959961,18.920345306396484,0.0
2473,-2.952392578125,-2.844482421875,-5.947509765625,476.0,-500.0,325.0,-23.18963623046875,24.12408447265625,0.0,216.32418823242188,-218.51023864746094,151.78036499023438,-18.042137145996094,18.917383193969727,0.0
2478,-2.9482421875,-2.84326171875,-5.95361328125,502.0,-510.0,318.0,-23.16942024230957,24.077913284301758,0.0,216.3625030517578,-218.54916381835938,151.8046417236328,-18.03850555419922,18.913368225097656,0.0
2483,-2.95166015625,-2.844482421875,-5.957275390625,476.0,-473.0,306.0,-23.163354873657227,24.090253829956055,0.0,216.39883422851562,-218.58526611328125,151.8280029296875,-18.03682518005371,18.912263870239258,0.0
2488,-2.951904296875,-2.847900390625,-5.947265625,480.0,-491.0,334.0,-23.215911865234375,24.11648178100586,0.0,216.4354705810547,-218.62274169921875,151.85350036621094,-18.035198211669922,18.90997314453125,0.0
2493,-2.947998046875,-2.843017578125,-5.95166015625,498.0,-488.0,350.0,-23.17344093322754,24.082189559936523,0.0,216.47348022460938,-218.6599884033203,151.88021850585938,-18.03192901611328,18.907690048217773,0.0
2498,-2.95166015625,-2.844970703125,-5.95263671875,488.0,-490.0,343.0,-23.179874420166016,24.103116989135742,0.0,216.51072692871094,-218.6973876953125,151.90640258789062,-18.029478073120117,18.905405044555664,0.0
2503,-2.951904296875,-2.841552734375,-5.945556640625,470.0,-488.0,337.0,-23.174409866333008,24.130361557006836,0.0,216.54660034179688,-218.73463439941406,151.93212890625,-18.02836799621582,18.903465270996094,0.0
2508,-2.947021484375,-2.847412109375,-5.94287109375,506.0,-484.0,316.0,-23.231456756591797,24.094648361206055,0.0,216.58522033691406,-218.77157592773438,151.9562530517578,-18.024913787841797,18.90159797668457,0.0
2513,-2.948974609375,-2.845458984375,-5.95068359375,479.0,-489.0,321.0,-23.192617416381836,24.088703155517578,0.0,216.6217803955078,-218.80889892578125,151.9807586669922,-18.023263931274414,18.899320602416992,0.0
2518,-2.951904296875,-2.8486328125,-5.951171875,482.0,-496.0,336.0,-23.21031379699707,24.104045867919922,0.0,216.6585693359375,-218.8467559814453,152.00640869140625,-18.02151107788086,18.896625518798828,0.0
2523,-2.9482421875,-2.845458984375,-5.948486328125,489.0,-482.0,332.0,-23.199783325195312,24.08981704711914,0.0,216.69589233398438,-218.883544921875,152.03175354003906,-18.0191650390625,18.894908905029297,0.0
2528,-2.94775390625,-2.845458984375,-5.957763671875,480.0,-496.0,341.0,-23.17450714111328,24.05921173095703,0.0,216.73252868652344,-218.92140197753906,152.0577850341797,-18.01734161376953,18.89193344116211,0.0
2533,-2.952392578125,-2.842529296875,-5.950927734375,463.0,-495.0,328.0,-23.16583824157715,24.1168212890625,0.0,216.7678680419922,-218.9591827392578,152.08282470703125,-18.016759872436523,18.889436721801758,0.0
2539,-2.951904296875,-2.842041015625,-5.94873046875,476.0,-480.0,330.0,-23.169095993041992,24.120393753051758,0.0,216.80419921875,-218.99581909179688,152.10801696777344,-18.015213012695312,18.888113021850586,0.0
2544,-2.949462890625,-2.844482421875,-5.94873046875,475.0,-501.0,302.0,-23.19028663635254,24.099306106567383,0.0,216.84771728515625,-219.04171752929688,152.13568115234375,-18.006786346435547,18.877565383911133,0.0
2549,-2.955322265625,-2.84375,-5.947021484375,457.0,-516.0,325.0,-23.181589126586914,24.14774513244629,0.0,216.88259887695312,-219.0811004638672,152.16049194335938,-18.006921768188477,18.873868942260742,0.0
2554,-2.94873046875,-2.84130859375,-5.953125,499.0,-485.0,328.0,-23.155872344970703,24.085596084594727,0.0,216.92068481445312,-219.1181182861328,152.18553161621094,-18.003692626953125,18.87212371826172,0.0
2559,-2.9541015625,-2.847412109375,-5.95556640625,480.0,-501.0,339.0,-23.186084747314453,24.108814239501953,0.0,216.9573211669922,-219.15635681152344,152.21141052246094,-18.00212287902832,18.869327545166016,0.0
2564,-2.95263671875,-2.845947265625,-5.95166015625,485.0,-487.0,326.0,-23.188365936279297,24.11167335510254,0.0,216.9943389892578,-219.1935272216797,152.23629760742188,-18.000194549560547,18.867626190185547,0.0
2569,-2.94873046875,-2.84130859375,-5.955322265625,500.0,-465.0,308.0,-23.14973258972168,24.079179763793945,0.0,217.03250122070312,-219.22901916503906,152.2598114013672,-17.996877670288086,18.867380142211914,0.0
2574,-2.949951171875,-2.84619140625,-5.950439453125,510.0,-489.0,290.0,-23.197284698486328,24.095462799072266,0.0,217.07142639160156,-219.26634216308594,152.28195190429688,-17.993141174316406,18.865419387817383,0.0
2579,-2.94921875,-2.847412109375,-5.95166015625,498.0,-485.0,332.0,-23.203781127929688,24.08489227294922,0.0,217.10943603515625,-219.30335998535156,152.3072967529297,-17.99037742614746,18.863698959350586,0.0
2584,-2.94775390625,-2.84228515625,-5.9482421875,506.0,-470.0,335.0,-23.17799949645996,24.091426849365234,0.0,217.14805603027344,-219.3392333984375,152.33287048339844,-17.986846923828125,18.863168716430664,0.0
2589,-2.948974609375,-2.845947265625,-5.94873046875,482.0,-487.0,338.0,-23.201642990112305,24.093725204467773,0.0,217.18484497070312,-219.37640380859375,152.35867309570312,-17.985313415527344,18.86136245727539,0.0
2594,-2.94775390625,-2.845947265625,-5.94921875,485.0,-500.0,334.0,-23.20197105407715,24.083459854125977,0.0,217.22186279296875,-219.41456604003906,152.38417053222656,-17.98356056213379,18.858509063720703,0.0
2599,-2.95068359375,-2.84521484375,-5.95458984375,492.0,-503.0,346.0,-23.17754554748535,24.090007781982422,0.0,217.25941467285156,-219.4529571533203,152.41058349609375,-17.98111915588379,18.855485916137695,0.0
2604,-2.95263671875,-2.84228515625,-5.952880859375,487.0,-495.0,323.0,-23.15826416015625,24.113218307495117,0.0,217.2965850830078,-219.49073791503906,152.43524169921875,-17.978939056396484,18.853240966796875,0.0
2609,-2.946533203125,-2.84716796875,-5.948486328125,481.0,-493.0,340.0,-23.214614868164062,24.075054168701172,0.0,217.3332977294922,-219.5283660888672,152.46119689941406,-17.977602005004883,18.850900650024414,0.0
2614,-2.950439453125,-2.845703125,-5.96435546875,478.0,-514.0,338.0,-23.15416717529297,24.059085845947266,0.0,217.36978149414062,-219.56759643554688,152.48699951171875,-17.976091384887695,18.846874237060547,0.0
2619,-2.94970703125,-2.843505859375,-5.95458984375,480.0,-497.0,343.0,-23.16644287109375,24.085323333740234,0.0,217.4064178466797,-219.60552978515625,152.51318359375,-17.974515914916992,18.84433364868164,0.0
2624,-2.94873046875,-2.84326171875,-5.956787109375,491.0,-479.0,349.0,-23.159875869750977,24.072185516357422,0.0,217.4438934326172,-219.64208984375,152.53982543945312,-17.972068786621094,18.843082427978516,0.0
2629,-2.949462890625,-2.843994140625,-5.94921875,484.0,-497.0,313.0,-23.18535804748535,24.098562240600586,0.0,217.4808349609375,-219.68002319335938,152.563720703125,-17.970335006713867,18.840646743774414,0.0
2634,-2.94970703125,-2.84423828125,-5.94873046875,482.0,-483.0,354.0,-23.18816566467285,24.101415634155273,0.0,217.5176239013672,-219.71688842773438,152.5907440185547,-17.968780517578125,18.839303970336914,0.0
2639,-2.948486328125,-2.8447265625,-5.945556640625,491.0,-462.0,333.0,-23.202308654785156,24.101167678833008,0.0,217.5550994873047,-219.7521514892578,152.6161651611328,-17.966644287109375,18.839557647705078,0.0
2644,-2.947265625,-2.843994140625,-5.95166015625,478.0,-490.0,316.0,-23.18157386779785,24.075523376464844,0.0,217.59158325195312,-219.78955078125,152.64028930664062,-17.965364456176758,18.837509155273438,0.0
2649,-2.94921875,-2.842041015625,-5.9521484375,487.0,-489.0,336.0,-23.163265228271484,24.09096336364746,0.0,217.62875366210938,-219.82687377929688,152.6659393310547,-17.96328353881836,18.835649490356445,0.0
2654,-2.949462890625,-2.84375,-5.94775390625,495.0,-499.0,329.0,-23.18767738342285,24.10318374633789,0.0,217.66653442382812,-219.86495971679688,152.69105529785156,-17.960769653320312,18.83312225341797,0.0
2659,-2.952880859375,-2.843994140625,-5.947021484375,489.0,-487.0,322.0,-23.1867618560791,24.129730224609375,0.0,217.703857421875,-219.90213012695312,152.71563720703125,-17.958717346191406,18.831695556640625,0.0
2664,-2.952880859375,-2.844482421875,-5.956787109375,493.0,-497.0,327.0,-23.163028717041016,24.100507736206055,0.0,217.74148559570312,-219.9400634765625,152.7406005859375,-17.956212997436523,18.829320907592773,0.0
2669,-2.9521484375,-2.846435546875,-5.951171875,474.0,-492.0,320.0,-23.193965911865234,24.108882904052734,0.0,217.7776641845703,-219.9776153564453,152.76502990722656,-17.95536994934082,18.827392578125,0.0
2675,-2.9501953125,-2.844482421875,-5.955078125,474.0,-474.0,317.0,-23.171520233154297,24.086069107055664,0.0,217.8138427734375,-220.0137939453125,152.7892303466797,-17.954378128051758,18.82668685913086,0.0
2680,-2.953125,-2.8447265625,-5.955078125,487.0,-481.0,350.0,-23.169240951538086,24.106924057006836,0.0,217.85845947265625,-220.057861328125,152.8212890625,-17.94510269165039,18.818397521972656,0.0
2685,-2.951171875,-2.843994140625,-5.946044921875,490.0,-479.0,327.0,-23.19186782836914,24.120214462280273,0.0,217.89585876464844,-220.09442138671875,152.84625244140625,-17.943195343017578,18.81769371032715,0.0
2690,-2.949951171875,-2.842041015625,-5.947998046875,497.0,-506.0,320.0,-23.17385482788086,24.108394622802734,0.0,217.9337921142578,-220.13304138183594,152.8706817626953,-17.940643310546875,18.814863204956055,0.0
2695,-2.948974609375,-2.845703125,-5.94775390625,497.0,-507.0,344.0,-23.202598571777344,24.0969181060791,0.0,217.9717254638672,-220.17173767089844,152.89694213867188,-17.938297271728516,18.811893463134766,0.0
2700,-2.953857421875,-2.8388671875,-5.94775390625,481.0,-489.0,327.0,-23.14596939086914,24.141826629638672,0.0,218.00843811035156,-220.2090606689453,152.92190551757812,-17.93679428100586,18.810604095458984,0.0
2705,-2.953857421875,-2.84619140625,-5.9501953125,470.0,-493.0,327.0,-23.192546844482422,24.124446868896484,0.0,218.0443115234375,-220.24668884277344,152.94686889648438,-17.936443328857422,18.80889892578125,0.0
2710,-2.951904296875,-2.846435546875,-5.946533203125,488.0,-489.0,312.0,-23.207286834716797,24.12067222595215,0.0,218.08155822753906,-220.2840118408203,152.97068786621094,-17.934823989868164,18.807477951049805,0.0
2715,-2.949462890625,-2.845947265625,-5.944091796875,481.0,-476.0,352.0,-23.213956832885742,24.110816955566406,0.0,218.11827087402344,-220.32034301757812,152.99755859375,-17.933786392211914,18.806982040405273,0.0
2720,-2.95068359375,-2.841796875,-5.951416015625,480.0,-482.0,349.0,-23.161502838134766,24.104045867919922,0.0,218.1549072265625,-220.3571319580078,153.02420043945312,-17.93247413635254,18.80598258972168,0.0
2725,-2.94921875,-2.8447265625,-5.95703125,483.0,-486.0,345.0,-23.169193267822266,24.072965621948242,0.0,218.1917724609375,-220.39422607421875,153.050537109375,-17.93099021911621,18.804473876953125,0.0
2730,-2.949462890625,-2.8447265625,-5.953369140625,473.0,-494.0,333.0,-23.17909049987793,24.085416793823242,0.0,218.22787475585938,-220.4319305419922,153.07595825195312,-17.93033790588379,18.802448272705078,0.0
2735,-2.95263671875,-2.84326171875,-5.951904296875,474.0,-503.0,326.0,-23.168109893798828,24.114709854125977,0.0,218.26405334472656,-220.47032165527344,153.10084533691406,-17.929534912109375,18.799945831298828,0.0
2740,-2.94970703125,-2.845947265625,-5.951904296875,479.0,-473.0,343.0,-23.19174575805664,24.089759826660156,0.0,218.3006134033203,-220.5064239501953,153.1270294189453,-17.928510665893555,18.799564361572266,0.0
2745,-2.950439453125,-2.844970703125,-5.94873046875,480.0,-497.0,300.0,-23.19249153137207,24.105693817138672,0.0,218.33724975585938,-220.5443572998047,153.14993286132812,-17.927417755126953,18.797466278076172,0.0
2750,-2.953857421875,-2.84521484375,-5.946533203125,500.0,-505.0,336.0,-23.1956729888916,24.136520385742188,0.0,218.3754119873047,-220.58290100097656,153.1755828857422,-17.924835205078125,18.794979095458984,0.0
2755,-2.948486328125,-2.845703125,-5.94921875,483.0,-489.0,333.0,-23.199174880981445,24.08910369873047,0.0,218.4122772216797,-220.62022399902344,153.2010040283203,-17.92357635498047,18.793397903442383,0.0
2760,-2.95068359375,-2.847412109375,-5.95556640625,489.0,-479.0,331.0,-23.190820693969727,24.08409309387207,0.0,218.44960021972656,-220.6567840576172,153.2262725830078,-17.921812057495117,18.79254722595215,0.0
2765,-2.951171875,-2.8427734375,-5.952880859375,490.0,-466.0,330.0,-23.16385269165039,24.101938247680664,0.0,218.48699951171875,-220.69235229492188,153.25146484375,-17.919797897338867,18.792804718017578,0.0
2770,-2.951171875,-2.843505859375,-5.955078125,487.0,-469.0,331.0,-23.163049697875977,24.094497680664062,0.0,218.524169921875,-220.7281494140625,153.2767333984375,-17.918014526367188,18.79277992248535,0.0
2775,-2.94921875,-2.84228515625,-5.9482421875,512.0,-490.0,320.0,-23.175968170166016,24.102035522460938,0.0,218.56324768066406,-220.7655487060547,153.30116271972656,-17.914432525634766,18.791208267211914,0.0
2780,-2.95166015625,-2.847412109375,-5.953125,470.0,-471.0,328.0,-23.19629669189453,24.098283767700195,0.0,218.59912109375,-220.80149841308594,153.32620239257812,-17.9141902923584,18.791059494018555,0.0
2785,-2.95458984375,-2.843017578125,-5.95703125,485.0,-500.0,355.0,-23.149309158325195,24.114198684692383,0.0,218.63613891601562,-220.83966064453125,153.35330200195312,-17.912492752075195,18.788814544677734,0.0
2790,-2.949462890625,-2.84326171875,-5.947509765625,478.0,-510.0,349.0,-23.184799194335938,24.10457992553711,0.0,218.67262268066406,-220.8785858154297,153.37994384765625,-17.911571502685547,18.78575897216797,0.0
2795,-2.95166015625,-2.846435546875,-5.947021484375,467.0,-488.0,320.0,-23.20625877380371,24.117477416992188,0.0,218.70826721191406,-220.91583251953125,153.4043731689453,-17.911630630493164,18.784473419189453,0.0
2800,-2.951171875,-2.843505859375,-5.94873046875,475.0,-478.0,330.0,-23.18079376220703,24.11304473876953,0.0,218.74452209472656,-220.9523162841797,153.4295654296875,-17.91090965270996,18.783920288085938,0.0
2805,-2.94970703125,-2.843505859375,-5.94921875,485.0,-503.0,333.0,-23.181459426879883,24.101011276245117,0.0,218.7815399169922,-220.99070739746094,153.45498657226562,-17.909433364868164,18.781391143798828,0.0
2810,-2.9521484375,-2.844482421875,-5.9482421875,476.0,-499.0,334.0,-23.187925338745117,24.120176315307617,0.0,218.81787109375,-221.02879333496094,153.48048400878906,-17.90869140625,18.779308319091797,0.0
2816,-2.950927734375,-2.84130859375,-5.949951171875,497.0,-476.0,337.0,-23.161697387695312,24.110776901245117,0.0,218.8634033203125,-221.07240295410156,153.5113525390625,-17.898746490478516,18.771800994873047,0.0
2821,-2.949951171875,-2.846435546875,-5.94970703125,501.0,-478.0,352.0,-23.201114654541016,24.097259521484375,0.0,218.90164184570312,-221.10888671875,153.53822326660156,-17.8963623046875,18.77131462097168,0.0
2826,-2.94873046875,-2.84228515625,-5.95556640625,488.0,-507.0,334.0,-23.15616798400879,24.077106475830078,0.0,218.9388885498047,-221.1475830078125,153.563720703125,-17.894672393798828,18.76849365234375,0.0
2831,-2.94873046875,-2.844970703125,-5.952880859375,491.0,-522.0,322.0,-23.183250427246094,24.08120346069336,0.0,218.9763641357422,-221.1874237060547,153.5883026123047,-17.892942428588867,18.764577865600586,0.0
2836,-2.950927734375,-2.841796875,-5.956787109375,479.0,-506.0,335.0,-23.146163940429688,24.09012222290039,0.0,219.01292419433594,-221.22604370117188,153.61387634277344,-17.89188003540039,18.76195526123047,0.0
2841,-2.94775390625,-2.845947265625,-5.950927734375,503.0,-486.0,343.0,-23.197185516357422,24.078472137451172,0.0,219.0513153076172,-221.2631378173828,153.6400604248047,-17.88934326171875,18.76078224182129,0.0
2846,-2.95068359375,-2.849365234375,-5.949951171875,474.0,-498.0,329.0,-23.220762252807617,24.097753524780273,0.0,219.08749389648438,-221.3011474609375,153.66517639160156,-17.889177322387695,18.758832931518555,0.0
2851,-2.9521484375,-2.84375,-5.9501953125,483.0,-504.0,338.0,-23.177122116088867,24.115489959716797,0.0,219.12435913085938,-221.33961486816406,153.69097900390625,-17.888031005859375,18.756555557250977,0.0
2856,-2.950439453125,-2.847412109375,-5.952392578125,481.0,-486.0,315.0,-23.200037002563477,24.091588973999023,0.0,219.16107177734375,-221.376708984375,153.71502685546875,-17.88719367980957,18.7554931640625,0.0
2861,-2.95068359375,-2.850341796875,-5.94677734375,471.0,-499.0,340.0,-23.236770629882812,24.105655670166016,0.0,219.197021484375,-221.414794921875,153.74098205566406,-17.88736343383789,18.753541946411133,0.0
2866,-2.953125,-2.8447265625,-5.951416015625,471.0,-476.0,319.0,-23.179475784301758,24.117624282836914,0.0,219.23297119140625,-221.4511260986328,153.7653350830078,-17.887142181396484,18.75342559814453,0.0
2871,-2.951416015625,-2.8447265625,-5.95166015625,473.0,-490.0,354.0,-23.181163787841797,24.104543685913086,0.0,219.26907348632812,-221.488525390625,153.7923583984375,-17.886777877807617,18.752155303955078,0.0
2876,-2.9482421875,-2.845947265625,-5.95458984375,471.0,-469.0,336.0,-23.186262130737305,24.071319580078125,0.0,219.30502319335938,-221.52432250976562,153.81800842285156,-17.886598587036133,18.75225830078125,0.0
2881,-2.9521484375,-2.84521484375,-5.951416015625,491.0,-491.0,340.0,-23.184389114379883,24.10987663269043,0.0,219.34249877929688,-221.56179809570312,153.84396362304688,-17.884885787963867,18.750946044921875,0.0
