Time,Acc_low_X,Acc_low_Y,Acc_low_Z,Gyro_low_X,Gyro_low_Y,Gyro_low_Z,Acc_X,Acc_Y,Acc_Z,Gyro_X,Gyro_Y,Gyro_Z,Euler_X,Euler_Y,Euler_Z
5,-2.94677734375,-3.832763671875,-4.92578125,487.0,-495.0,322.0,-33.73249435424805,25.274066925048828,0.0,55.004974365234375,-55.908546447753906,36.36879348754883,-32.82976531982422,24.448192596435547,0.0
10,-2.9443359375,-3.826171875,-4.9228515625,478.0,-480.0,331.0,-33.70432662963867,25.278282165527344,0.0,55.04146194458008,-55.945186614990234,36.39406204223633,-33.246482849121094,24.842710494995117,0.0
15,-2.940673828125,-3.82470703125,-4.92041015625,472.0,-503.0,340.0,-33.71253204345703,25.260786056518555,0.0,55.077491760253906,-55.983585357666016,36.42001724243164,-33.377254486083984,24.955963134765625,0.0
20,-2.93994140625,-3.827880859375,-4.91943359375,470.0,-495.0,335.0,-33.740081787109375,25.251100540161133,0.0,55.11336898803711,-56.02136993408203,36.44559097290039,-33.44081497192383,25.00120735168457,0.0
25,-2.9423828125,-3.83056640625,-4.927734375,497.0,-501.0,346.0,-33.71998596191406,25.240385055541992,0.0,55.15130615234375,-56.05961608886719,36.47200393676758,-33.4661865234375,25.018348693847656,0.0
31,-2.94189453125,-3.822021484375,-4.92724609375,514.0,-482.0,354.0,-33.66401290893555,25.25665283203125,0.0,55.19054412841797,-56.09640884399414,36.499027252197266,-33.466407775878906,25.02734375,0.0
36,-2.942626953125,-3.834228515625,-4.92529296875,477.0,-472.0,343.0,-33.754364013671875,25.24108123779297,0.0,55.23423767089844,-56.139644622802734,36.53044891357422,-33.470054626464844,25.020790100097656,0.0
41,-2.93896484375,-3.82958984375,-4.92333984375,478.0,-471.0,338.0,-33.73872375488281,25.22911262512207,0.0,55.27072525024414,-56.17559814453125,36.556251525878906,-33.47169494628906,25.015357971191406,0.0
46,-2.943115234375,-3.82080078125,-4.92236328125,490.0,-485.0,337.0,-33.672000885009766,25.28217124938965,0.0,55.308128356933594,-56.21261978149414,36.58197784423828,-33.46070098876953,25.01209259033203,0.0
51,-2.940673828125,-3.82421875,-4.927001953125,486.0,-494.0,348.0,-33.68305587768555,25.24338722229004,0.0,55.3452262878418,-56.250328063964844,36.608543395996094,-33.44955825805664,25.001291275024414,0.0
56,-2.94189453125,-3.827880859375,-4.91845703125,483.0,-482.0,341.0,-33.73932647705078,25.268518447875977,0.0,55.38209533691406,-56.2871208190918,36.63457489013672,-33.442405700683594,24.99215316772461,0.0
61,-2.94482421875,-3.826171875,-4.927001953125,492.0,-466.0,342.0,-33.68675231933594,25.27032470703125,0.0,55.41965103149414,-56.32269287109375,36.660682678222656,-33.428367614746094,24.98275375366211,0.0
66,-2.9423828125,-3.82861328125,-4.919921875,484.0,-468.0,332.0,-33.7374267578125,25.266490936279297,0.0,55.45659637451172,-56.35841751098633,36.68602752685547,-33.4180793762207,24.97163963317871,0.0
71,-2.943359375,-3.82958984375,-4.9306640625,488.0,-501.0,372.0,-33.699344635009766,25.241649627685547,0.0,55.49384689331055,-56.396663665771484,36.71442413330078,-33.40362548828125,24.955455780029297,0.0
76,-2.943115234375,-3.82421875,-4.931396484375,480.0,-490.0,335.0,-33.659915924072266,25.24942970275879,0.0,55.530487060546875,-56.43406677246094,36.73999786376953,-33.386558532714844,24.940195083618164,0.0
81,-2.94384765625,-3.81689453125,-4.921142578125,482.0,-490.0,340.0,-33.6480598449707,25.299612045288086,0.0,55.56727981567383,-56.47146987915039,36.765953063964844,-33.36846160888672,24.927661895751953,0.0
86,-2.9453125,-3.82958984375,-4.919189453125,476.0,-483.0,364.0,-33.740135192871094,25.288429260253906,0.0,55.603614807128906,-56.508338928222656,36.793739318847656,-33.35620880126953,24.91425895690918,0.0
91,-2.94287109375,-3.82373046875,-4.9287109375,481.0,-504.0,350.0,-33.66773223876953,25.256174087524414,0.0,55.64033126831055,-56.54681396484375,36.820457458496094,-33.33891296386719,24.897001266479492,0.0
96,-2.944091796875,-3.82373046875,-4.923583984375,490.0,-496.0,323.0,-33.68512725830078,25.27971076965332,0.0,55.677734375,-56.58467483520508,36.845115661621094,-33.3217887878418,24.881372451782227,0.0
101,-2.94775390625,-3.82373046875,-4.928955078125,476.0,-497.0,346.0,-33.655235290527344,25.292163848876953,0.0,55.71406936645508,-56.62261199951172,36.87152862548828,-33.30403518676758,24.865982055664062,0.0
106,-2.942626953125,-3.83056640625,-4.926025390625,480.0,-496.0,342.0,-33.726173400878906,25.246997833251953,0.0,55.750709533691406,-56.66047286987305,36.89763641357422,-33.289363861083984,24.848176956176758,0.0
111,-2.945556640625,-3.82275390625,-4.92431640625,478.0,-523.0,328.0,-33.67201232910156,25.29079246520996,0.0,55.78719711303711,-56.70039749145508,36.92267608642578,-33.27204513549805,24.830324172973633,0.0
116,-2.946533203125,-3.82177734375,-4.931884765625,495.0,-495.0,315.0,-33.63304901123047,25.279029846191406,0.0,55.824981689453125,-56.738182067871094,36.946720123291016,-33.2517204284668,24.81383514404297,0.0
121,-2.943603515625,-3.832275390625,-4.92626953125,490.0,-503.0,323.0,-33.73469924926758,25.24993324279785,0.0,55.86238479614258,-56.776580810546875,36.971378326416016,-33.23616409301758,24.795358657836914,0.0
126,-2.93994140625,-3.82958984375,-4.922607421875,471.0,-502.0,319.0,-33.739315032958984,25.238500595092773,0.0,55.898338317871094,-56.814903259277344,36.995731353759766,-33.221954345703125,24.776456832885742,0.0
131,-2.9423828125,-3.8251953125,-4.920166015625,466.0,-491.0,331.0,-33.71282958984375,25.27325439453125,0.0,55.93391036987305,-56.85238265991211,37.020999908447266,-33.20681381225586,24.75971031188965,0.0
136,-2.939697265625,-3.826416015625,-4.926513671875,485.0,-486.0,333.0,-33.70248794555664,25.23263931274414,0.0,55.97093200683594,-56.88948059082031,37.04642105102539,-33.18971633911133,24.74168586730957,0.0
141,-2.944091796875,-3.832275390625,-4.92822265625,490.0,-509.0,352.0,-33.72581481933594,25.248140335083008,0.0,56.00833511352539,-56.92833709716797,37.07329177856445,-33.173011779785156,24.72251319885254,0.0
146,-2.94384765625,-3.821044921875,-4.915771484375,485.0,-479.0,352.0,-33.69804763793945,25.305644989013672,0.0,56.04535675048828,-56.964900970458984,37.100162506103516,-33.15559387207031,24.707561492919922,0.0
151,-2.941650390625,-3.826416015625,-4.920166015625,480.0,-508.0,322.0,-33.72300720214844,25.26508903503418,0.0,56.08199691772461,-57.00368118286133,37.1247444152832,-33.13933563232422,24.688905715942383,0.0
156,-2.941162109375,-3.825439453125,-4.916015625,479.0,-465.0,351.0,-33.733856201171875,25.27517318725586,0.0,56.118560791015625,-57.03917694091797,37.15153884887695,-33.12339782714844,24.67373275756836,0.0
161,-2.945068359375,-3.826904296875,-4.9267578125,459.0,-484.0,344.0,-33.692203521728516,25.27124786376953,0.0,56.15359878540039,-57.07612228393555,37.177799224853516,-33.10749816894531,24.656892776489258,0.0
167,-2.944091796875,-3.82275390625,-4.924072265625,475.0,-463.0,311.0,-33.67644119262695,25.280467987060547,0.0,56.189857482910156,-57.11146545410156,37.2015380859375,-33.0898551940918,24.641817092895508,0.0
172,-2.93994140625,-3.826171875,-4.920166015625,471.0,-508.0,338.0,-33.725364685058594,25.252771377563477,0.0,56.233001708984375,-57.15800094604492,37.23249816894531,-33.0670051574707,24.614944458007812,0.0
177,-2.942138671875,-3.82373046875,-4.927001953125,454.0,-496.0,328.0,-33.67621994018555,25.255456924438477,0.0,56.26765823364258,-57.19586181640625,37.257537841796875,-33.05107116699219,24.596805572509766,0.0
182,-2.94140625,-3.82275390625,-4.92431640625,483.0,-492.0,324.0,-33.68182373046875,25.259599685668945,0.0,56.304527282714844,-57.23341751098633,37.28227233886719,-33.0330924987793,24.579065322875977,0.0
187,-2.94384765625,-3.828125,-4.922119140625,476.0,-488.0,339.0,-33.72188186645508,25.272411346435547,0.0,56.34086227416992,-57.270668029785156,37.30815124511719,-33.01674270629883,24.561948776245117,0.0
192,-2.941162109375,-3.82568359375,-4.926513671875,454.0,-493.0,346.0,-33.69396209716797,25.2452392578125,0.0,56.375518798828125,-57.30830001831055,37.334564208984375,-33.0012092590332,24.54368019104004,0.0
197,-2.943359375,-3.822265625,-4.927978515625,482.0,-475.0,342.0,-33.65934753417969,25.265077590942383,0.0,56.41231155395508,-57.34455871582031,37.36067199707031,-32.98262405395508,24.527273178100586,0.0
202,-2.9423828125,-3.82861328125,-4.927490234375,470.0,-498.0,349.0,-33.707462310791016,25.245311737060547,0.0,56.44818878173828,-57.382572174072266,37.38731384277344,-32.96620178222656,24.508594512939453,0.0
207,-2.9404296875,-3.827880859375,-4.932861328125,468.0,-523.0,348.0,-33.68576431274414,25.21721649169922,0.0,56.48391342163086,-57.4224967956543,37.41387939453125,-32.949344635009766,24.487369537353516,0.0
212,-2.942626953125,-3.822021484375,-4.9287109375,480.0,-472.0,354.0,-33.656494140625,25.258052825927734,0.0,56.52055358886719,-57.458526611328125,37.44090270996094,-32.93086242675781,24.47103500366211,0.0
217,-2.93994140625,-3.824951171875,-4.92919921875,498.0,-466.0,348.0,-33.681156158447266,25.230144500732422,0.0,56.55856704711914,-57.49409866333008,37.46746826171875,-32.91167068481445,24.454435348510742,0.0
222,-2.941162109375,-3.82958984375,-4.929443359375,481.0,-486.0,337.0,-33.7093620300293,25.228561401367188,0.0,56.59528350830078,-57.53119659423828,37.493194580078125,-32.894447326660156,24.4362850189209,0.0
227,-2.9453125,-3.822021484375,-4.924072265625,485.0,-485.0,340.0,-33.668487548828125,25.291234970092773,0.0,56.63230514526367,-57.56821823120117,37.51914978027344,-32.875972747802734,24.419660568237305,0.0
232,-2.9453125,-3.82568359375,-4.9228515625,500.0,-471.0,335.0,-33.698638916015625,25.28668212890625,0.0,56.67047119140625,-57.60417175292969,37.54472351074219,-32.85708999633789,24.403934478759766,0.0
237,-2.94189453125,-3.83203125,-4.921630859375,463.0,-482.0,344.0,-33.755428314208984,25.25059700012207,0.0,56.705814361572266,-57.64096450805664,37.57098388671875,-32.84224319458008,24.386533737182617,0.0
242,-2.9462890625,-3.825439453125,-4.923828125,464.0,-501.0,334.0,-33.69077682495117,25.29181480407715,0.0,56.741233825683594,-57.6792106628418,37.59648132324219,-32.82584762573242,24.36859703063965,0.0
247,-2.942626953125,-3.824462890625,-4.924072265625,488.0,-479.0,321.0,-33.69172286987305,25.2657413482666,0.0,56.77848434448242,-57.71577453613281,37.62098693847656,-32.80766296386719,24.351743698120117,0.0
252,-2.945068359375,-3.825439453125,-4.91845703125,476.0,-501.0,355.0,-33.71492385864258,25.297698974609375,0.0,56.8148193359375,-57.75402069091797,37.64808654785156,-32.79087829589844,24.333890914916992,0.0
257,-2.94482421875,-3.83056640625,-4.923095703125,481.0,-500.0,335.0,-33.73257064819336,25.271697998046875,0.0,56.85153579711914,-57.79218673706055,37.67366027832031,-32.77406311035156,24.315574645996094,0.0
262,-2.94677734375,-3.825439453125,-4.924072265625,469.0,-486.0,325.0,-33.68865966796875,25.294797897338867,0.0,56.88733673095703,-57.82928466796875,37.69847106933594,-32.75724792480469,24.298778533935547,0.0
267,-2.94287109375,-3.8271484375,-4.9228515625,514.0,-478.0,353.0,-33.71454620361328,25.265148162841797,0.0,56.92657470703125,-57.86577224731445,37.72541809082031,-32.737571716308594,24.28197479248047,0.0
272,-2.94189453125,-3.827392578125,-4.921142578125,484.0,-489.0,337.0,-33.725311279296875,25.262062072753906,0.0,56.96352005004883,-57.903099060058594,37.75114440917969,-32.72039794921875,24.2642765045166,0.0
277,-2.947021484375,-3.8212890625,-4.92333984375,499.0,-492.0,341.0,-33.66227340698242,25.30772590637207,0.0,57.001609802246094,-57.94065475463867,37.77717590332031,-32.70090103149414,24.24722671508789,0.0
282,-2.944091796875,-3.8212890625,-4.9228515625,488.0,-492.0,341.0,-33.671138763427734,25.287078857421875,0.0,57.03886032104492,-57.97821044921875,37.80320739746094,-32.68244934082031,24.229774475097656,0.0
287,-2.9423828125,-3.823486328125,-4.916748046875,463.0,-506.0,320.0,-33.71454620361328,25.286561965942383,0.0,57.07420349121094,-58.01683807373047,37.82763671875,-32.66670608520508,24.211261749267578,0.0
292,-2.94091796875,-3.828125,-4.92333984375,478.0,-493.0,326.0,-33.72398376464844,25.246978759765625,0.0,57.11069107055664,-58.05447006225586,37.85252380371094,-32.649986267089844,24.19302749633789,0.0
297,-2.94140625,-3.823486328125,-4.915771484375,469.0,-492.0,330.0,-33.72072982788086,25.28195571899414,0.0,57.14649200439453,-58.09202575683594,37.877716064453125,-32.63387680053711,24.17551612854004,0.0
303,-2.9453125,-3.830810546875,-4.9306640625,497.0,-484.0,338.0,-33.703163146972656,25.253660202026367,0.0,57.18442916870117,-58.128971099853516,37.90351867675781,-32.6153450012207,24.158113479614258,0.0
308,-2.94482421875,-3.827392578125,-4.93017578125,478.0,-496.0,338.0,-33.682640075683594,25.258785247802734,0.0,57.228214263916016,-58.174407958984375,37.934478759765625,-32.59076690673828,24.132492065429688,0.0
313,-2.947265625,-3.819580078125,-4.927490234375,478.0,-512.0,362.0,-33.63347625732422,25.301631927490234,0.0,57.26470184326172,-58.21349334716797,37.96211242675781,-32.57266616821289,24.11399269104004,0.0
318,-2.94384765625,-3.8291015625,-4.926025390625,485.0,-493.0,342.0,-33.71316909790039,25.25935173034668,0.0,57.30172348022461,-58.25112533569336,37.98822021484375,-32.555419921875,24.09622573852539,0.0
323,-2.943359375,-3.827880859375,-4.917236328125,485.0,-485.0,346.0,-33.74068832397461,25.282949447631836,0.0,57.3387451171875,-58.28814697265625,38.01463317871094,-32.538639068603516,24.0794677734375,0.0
328,-2.941650390625,-3.822265625,-4.9267578125,474.0,-488.0,346.0,-33.668209075927734,25.25565528869629,0.0,57.37492752075195,-58.32539749145508,38.041046142578125,-32.5214958190918,24.062034606933594,0.0
333,-2.944580078125,-3.825439453125,-4.927490234375,483.0,-505.0,340.0,-33.680335998535156,25.268714904785156,0.0,57.41179656982422,-58.363948822021484,38.06700134277344,-32.5038948059082,24.043550491333008,0.0
338,-2.94091796875,-3.829833984375,-4.93017578125,486.0,-488.0,335.0,-33.70872497558594,25.224151611328125,0.0,57.44889450073242,-58.40119934082031,38.09257507324219,-32.48654556274414,24.025663375854492,0.0
343,-2.943603515625,-3.8232421875,-4.927978515625,480.0,-489.0,343.0,-33.665523529052734,25.264789581298828,0.0,57.48553466796875,-58.43852615356445,38.11875915527344,-32.46898651123047,24.00836944580078,0.0
348,-2.946044921875,-3.819091796875,-4.926025390625,487.0,-479.0,316.0,-33.638771057128906,25.297636032104492,0.0,57.522708892822266,-58.47509002685547,38.142879486083984,-32.45051574707031,23.992347717285156,0.0
353,-2.947021484375,-3.829345703125,-4.919677734375,454.0,-491.0,330.0,-33.732460021972656,25.30043601989746,0.0,57.55736541748047,-58.512569427490234,38.16807174682617,-32.436004638671875,23.97545623779297,0.0
358,-2.9423828125,-3.826904296875,-4.9228515625,489.0,-496.0,310.0,-33.714012145996094,25.26201057434082,0.0,57.59469223022461,-58.55043029785156,38.191734313964844,-32.41856002807617,23.957611083984375,0.0
363,-2.944580078125,-3.82373046875,-4.927490234375,484.0,-494.0,338.0,-33.668521881103516,25.272432327270508,0.0,57.63163757324219,-58.588138580322266,38.21753692626953,-32.40083312988281,23.94009780883789,0.0
368,-2.9423828125,-3.8330078125,-4.918701171875,498.0,-485.0,362.0,-33.77262878417969,25.260330200195312,0.0,57.66965103149414,-58.625160217285156,38.24517059326172,-32.38362503051758,23.9231014251709,0.0
373,-2.938720703125,-3.829833984375,-4.919677734375,490.0,-470.0,355.0,-33.75550842285156,25.23698616027832,0.0,57.707054138183594,-58.66103744506836,38.27227020263672,-32.36677551269531,23.906909942626953,0.0
378,-2.940673828125,-3.826904296875,-4.919921875,464.0,-487.0,352.0,-33.72966003417969,25.257368087768555,0.0,57.74247360229492,-58.698211669921875,38.29914093017578,-32.35151672363281,23.889741897583008,0.0
383,-2.940673828125,-3.82666015625,-4.921630859375,491.0,-504.0,350.0,-33.7212028503418,25.253114700317383,0.0,57.77995300292969,-58.73668670654297,38.32585906982422,-32.33409881591797,23.871253967285156,0.0
388,-2.937744140625,-3.827880859375,-4.9208984375,481.0,-475.0,337.0,-33.739479064941406,25.230480194091797,0.0,57.81666946411133,-58.772945404052734,38.351585388183594,-32.31771469116211,23.854671478271484,0.0
393,-2.9462890625,-3.822265625,-4.919189453125,481.0,-487.0,326.0,-33.68717575073242,25.311742782592773,0.0,57.85338592529297,-58.81011962890625,38.37647247314453,-32.30060958862305,23.838335037231445,0.0
398,-2.94873046875,-3.8203125,-4.92431640625,486.0,-457.0,323.0,-33.64761734008789,25.3199520111084,0.0,57.89048385620117,-58.84500503540039,38.40113067626953,-32.28260803222656,23.82437515258789,0.0
403,-2.93896484375,-3.82861328125,-4.925048828125,468.0,-503.0,314.0,-33.72520446777344,25.226457595825195,0.0,57.92620849609375,-58.88340377807617,38.42509841918945,-32.267066955566406,23.805644989013672,0.0
408,-2.94189453125,-3.827392578125,-4.922119140625,468.0,-497.0,319.0,-33.72144317626953,25.259328842163086,0.0,57.96193313598633,-58.92134094238281,38.4494514465332,-32.2514762878418,23.78786277770996,0.0
413,-2.9462890625,-3.824951171875,-4.91796875,478.0,-489.0,332.0,-33.7105827331543,25.309310913085938,0.0,57.99842071533203,-58.95866775512695,38.474796295166016,-32.23499298095703,23.77138328552246,0.0
418,-2.9423828125,-3.8291015625,-4.92333984375,483.0,-498.0,352.0,-33.727264404296875,25.255863189697266,0.0,58.0352897644043,-58.996681213378906,38.50166702270508,-32.2183723449707,23.753530502319336,0.0
423,-2.94287109375,-3.826904296875,-4.92138671875,483.0,-502.0,367.0,-33.71865463256836,25.26978302001953,0.0,58.07215881347656,-59.035003662109375,38.52968215942383,-32.20166015625,23.735595703125,0.0
428,-2.945556640625,-3.82763671875,-4.921630859375,492.0,-480.0,345.0,-33.716392517089844,25.287683486938477,0.0,58.10971450805664,-59.0716438293457,38.5560188293457,-32.184261322021484,23.719585418701172,0.0
433,-2.943359375,-3.82763671875,-4.92041015625,464.0,-489.0,337.0,-33.7264289855957,25.27459144592285,0.0,58.14513397216797,-59.108970642089844,38.58174514770508,-32.16913604736328,23.702739715576172,0.0
439,-2.939697265625,-3.8310546875,-4.9296875,475.0,-508.0,348.0,-33.72196960449219,25.21369743347168,0.0,58.181392669677734,-59.14775085449219,38.60831069946289,-32.15312576293945,23.6837100982666,0.0
444,-2.9453125,-3.825439453125,-4.922607421875,485.0,-480.0,314.0,-33.69791793823242,25.287899017333984,0.0,58.2258186340332,-59.19171905517578,38.6370735168457,-32.1287956237793,23.660581588745117,0.0
449,-2.94580078125,-3.82470703125,-4.920654296875,483.0,-506.0,336.0,-33.699424743652344,25.298641204833984,0.0,58.26268768310547,-59.2303466796875,38.662723541259766,-32.11206817626953,23.64296531677246,0.0
454,-2.94580078125,-3.82470703125,-4.929443359375,473.0,-514.0,341.0,-33.664669036865234,25.27400779724121,0.0,58.29879379272461,-59.26958465576172,38.68875503540039,-32.0956916809082,23.62447166442871,0.0
459,-2.939697265625,-3.8232421875,-4.930419921875,486.0,-507.0,338.0,-33.66508865356445,25.22860336303711,0.0,58.33589172363281,-59.30828857421875,38.71455764770508,-32.078369140625,23.605993270874023,0.0
464,-2.9462890625,-3.825439453125,-4.92041015625,470.0,-511.0,341.0,-33.70429992675781,25.3013973236084,0.0,58.371768951416016,-59.34729766845703,38.7405891418457,-32.06277084350586,23.588151931762695,0.0
469,-2.946533203125,-3.83203125,-4.92431640625,478.0,-483.0,334.0,-33.73381042480469,25.27792739868164,0.0,58.40825653076172,-59.3841667175293,38.76608657836914,-32.04694366455078,23.572174072265625,0.0
474,-2.94287109375,-3.828125,-4.925537109375,503.0,-495.0,353.0,-33.710662841796875,25.25550651550293,0.0,58.4466552734375,-59.42195129394531,38.793033599853516,-32.028968811035156,23.555038452148438,0.0
479,-2.940673828125,-3.823974609375,-4.92041015625,486.0,-508.0,350.0,-33.70746612548828,25.262380599975586,0.0,58.4837532043457,-59.460731506347656,38.81975173950195,-32.01228332519531,23.537038803100586,0.0
484,-2.94091796875,-3.826171875,-4.929931640625,499.0,-475.0,331.0,-33.684391021728516,25.2327823638916,0.0,58.52184295654297,-59.49699020385742,38.84502029418945,-31.99437713623047,23.521223068237305,0.0
489,-2.944091796875,-3.825439453125,-4.929443359375,486.0,-490.0,323.0,-33.673770904541016,25.259578704833984,0.0,58.55894088745117,-59.534393310546875,38.86967849731445,-31.977375030517578,23.504610061645508,0.0
494,-2.943603515625,-3.82275390625,-4.921142578125,492.0,-502.0,334.0,-33.689186096191406,25.285011291503906,0.0,58.59649658203125,-59.572715759277344,38.89517593383789,-31.960140228271484,23.487417221069336,0.0
499,-2.942138671875,-3.827880859375,-4.921875,479.0,-483.0,354.0,-33.7252082824707,25.260784149169922,0.0,58.633060455322266,-59.60958480834961,38.92219924926758,-31.9443416595459,23.471412658691406,0.0
504,-2.939208984375,-3.827880859375,-4.91650390625,461.0,-504.0,344.0,-33.75343322753906,25.253793716430664,0.0,58.668251037597656,-59.6480598449707,38.94845962524414,-31.930248260498047,23.453767776489258,0.0
509,-2.942626953125,-3.824462890625,-4.92578125,491.0,-505.0,337.0,-33.68496322631836,25.260953903198242,0.0,58.70573043823242,-59.68661117553711,38.974185943603516,-31.913114547729492,23.436172485351562,0.0
514,-2.945556640625,-3.823974609375,-4.918212890625,488.0,-490.0,329.0,-33.70459747314453,25.305252075195312,0.0,58.74298095703125,-59.72401428222656,38.99930191040039,-31.89647102355957,23.420251846313477,0.0
519,-2.941650390625,-3.8271484375,-4.922607421875,477.0,-504.0,348.0,-33.71839904785156,25.25665855407715,0.0,58.77939224243164,-59.762489318847656,39.0258674621582,-31.880847930908203,23.402751922607422,0.0
524,-2.942626953125,-3.82568359375,-4.9228515625,481.0,-473.0,343.0,-33.70499801635742,25.266502380371094,0.0,58.81610870361328,-59.7985954284668,39.05205154418945,-31.864797592163086,23.387746810913086,0.0
529,-2.942138671875,-3.822265625,-4.92578125,479.0,-498.0,344.0,-33.670921325683594,25.262062072753906,0.0,58.8526725769043,-59.83660888671875,39.078311920166016,-31.848552703857422,23.370820999145508,0.0
534,-2.94140625,-3.8310546875,-4.92578125,467.0,-496.0,327.0,-33.7333984375,25.237449645996094,0.0,58.88832092285156,-59.87446975708008,39.103275299072266,-31.83393669128418,23.35381507873535,0.0
539,-2.939697265625,-3.8271484375,-4.91845703125,470.0,-495.0,359.0,-33.73946762084961,25.25359344482422,0.0,58.924198150634766,-59.912254333496094,39.130680084228516,-31.81917381286621,23.337100982666016,0.0
544,-2.943115234375,-3.82177734375,-4.927978515625,487.0,-519.0,320.0,-33.65654754638672,25.26430320739746,0.0,58.96137237548828,-59.951873779296875,39.15510940551758,-31.802248001098633,23.318729400634766,0.0
549,-2.94677734375,-3.82861328125,-4.9248046875,488.0,-490.0,341.0,-33.70769500732422,25.28583526611328,0.0,58.99862289428711,-59.98927688598633,39.1811408996582,-31.785842895507812,23.302833557128906,0.0
554,-2.94384765625,-3.8291015625,-4.92431640625,484.0,-501.0,357.0,-33.719932556152344,25.264135360717773,0.0,59.03556823730469,-60.027523040771484,39.20839309692383,-31.769906997680664,23.285905838012695,0.0
559,-2.941162109375,-3.824951171875,-4.923583984375,471.0,-497.0,330.0,-33.700496673583984,25.255035400390625,0.0,59.0715217590332,-60.065460205078125,39.233585357666016,-31.75478172302246,23.269224166870117,0.0
564,-2.9501953125,-3.82861328125,-4.92041015625,475.0,-464.0,348.0,-33.716976165771484,25.323816299438477,0.0,59.10778045654297,-60.10087966918945,39.26015090942383,-31.739553451538086,23.255800247192383,0.0
569,-2.943115234375,-3.83056640625,-4.9228515625,471.0,-478.0,336.0,-33.73758316040039,25.25954246520996,0.0,59.143733978271484,-60.137367248535156,39.28580093383789,-31.724870681762695,23.240646362304688,0.0
575,-2.9443359375,-3.822509765625,-4.925048828125,476.0,-511.0,362.0,-33.67031478881836,25.28009605407715,0.0,59.18006896972656,-60.17637634277344,39.31343460083008,-31.70913314819336,23.22323989868164,0.0
580,-2.9443359375,-3.825439453125,-4.9248046875,472.0,-485.0,330.0,-33.69153594970703,25.274404525756836,0.0,59.223304748535156,-60.220802307128906,39.34366226196289,-31.686861038208008,23.200498580932617,0.0
585,-2.94091796875,-3.827880859375,-4.9248046875,470.0,-504.0,327.0,-33.716495513916016,25.243412017822266,0.0,59.25918197631836,-60.25927734375,39.36862564086914,-31.672229766845703,23.183435440063477,0.0
590,-2.943115234375,-3.826904296875,-4.923828125,493.0,-484.0,353.0,-33.708412170410156,25.264780044555664,0.0,59.29681396484375,-60.29622268676758,39.395572662353516,-31.65580177307129,23.168148040771484,0.0
595,-2.937744140625,-3.8232421875,-4.927734375,484.0,-497.0,346.0,-33.680320739746094,25.221437454223633,0.0,59.33375930786133,-60.33415985107422,39.4219856262207,-31.63981056213379,23.151466369628906,0.0
600,-2.946044921875,-3.82568359375,-4.920654296875,486.0,-497.0,331.0,-33.70560073852539,25.2983455657959,0.0,59.37085723876953,-60.37209701538086,39.4472541809082,-31.623964309692383,23.135608673095703,0.0
605,-2.944580078125,-3.83154296875,-4.923583984375,475.0,-496.0,336.0,-33.73796081542969,25.26637077331543,0.0,59.4071159362793,-60.40995788574219,39.472904205322266,-31.60931396484375,23.119537353515625,0.0
610,-2.9443359375,-3.824462890625,-4.923583984375,489.0,-487.0,376.0,-33.689613342285156,25.279951095581055,0.0,59.44444274902344,-60.4471321105957,39.50160598754883,-31.5931453704834,23.104320526123047,0.0
615,-2.941162109375,-3.8251953125,-4.9287109375,493.0,-491.0,347.0,-33.6818962097168,25.24015235900879,0.0,59.48207473754883,-60.48461151123047,39.52809524536133,-31.576641082763672,23.088436126708984,0.0
620,-2.9404296875,-3.825927734375,-4.91943359375,486.0,-504.0,365.0,-33.72542190551758,25.25902557373047,0.0,59.51917266845703,-60.52308654785156,39.55595779418945,-31.56114387512207,23.071794509887695,0.0
625,-2.946044921875,-3.82568359375,-4.921630859375,457.0,-486.0,348.0,-33.70173645019531,25.295608520507812,0.0,59.55405807495117,-60.560184478759766,39.582523345947266,-31.547643661499023,23.05691909790039,0.0
630,-2.94287109375,-3.822509765625,-4.922607421875,478.0,-473.0,343.0,-33.683433532714844,25.275930404663086,0.0,59.590545654296875,-60.596290588378906,39.608707427978516,-31.532394409179688,23.042863845825195,0.0
635,-2.939697265625,-3.82958984375,-4.91943359375,477.0,-511.0,344.0,-33.75247573852539,25.245542526245117,0.0,59.626956939697266,-60.63529968261719,39.63496780395508,-31.51793098449707,23.02566146850586,0.0
640,-2.945068359375,-3.82177734375,-4.927490234375,480.0,-492.0,328.0,-33.653865814208984,25.280345916748047,0.0,59.663597106933594,-60.672855377197266,39.66000747680664,-31.50231170654297,23.010284423828125,0.0
645,-2.945068359375,-3.8251953125,-4.926513671875,484.0,-486.0,327.0,-33.681358337402344,25.27564811706543,0.0,59.70054244995117,-60.70995330810547,39.68497085571289,-31.486698150634766,22.995351791381836,0.0
650,-2.942626953125,-3.828125,-4.915771484375,496.0,-469.0,324.0,-33.74991989135742,25.281015396118164,0.0,59.7384033203125,-60.74575424194336,39.7097053527832,-31.47087860107422,22.981788635253906,0.0
655,-2.938720703125,-3.823486328125,-4.921630859375,469.0,-516.0,301.0,-33.70387649536133,25.245336532592773,0.0,59.77420425415039,-60.7851448059082,39.73268127441406,-31.456703186035156,22.964351654052734,0.0
660,-2.942626953125,-3.821044921875,-4.930419921875,478.0,-508.0,333.0,-33.642982482910156,25.255386352539062,0.0,59.810691833496094,-60.82392501831055,39.75810241699219,-31.44129753112793,22.947673797607422,0.0
665,-2.9443359375,-3.8291015625,-4.925537109375,478.0,-511.0,348.0,-33.71394729614258,25.264385223388672,0.0,59.8471794128418,-60.86293411254883,39.78466796875,-31.426607131958008,22.930904388427734,0.0
670,-2.94384765625,-3.828857421875,-4.926513671875,485.0,-487.0,337.0,-33.70954895019531,25.258516311645508,0.0,59.88420104980469,-60.900108337402344,39.810394287109375,-31.411380767822266,22.91594696044922,0.0
675,-2.945068359375,-3.82373046875,-4.923828125,480.0,-478.0,363.0,-33.68185043334961,25.28636360168457,0.0,59.920841217041016,-60.93659591674805,39.838104248046875,-31.39631462097168,22.901966094970703,0.0
680,-2.9443359375,-3.824951171875,-4.9189453125,480.0,-488.0,344.0,-33.71134948730469,25.291889190673828,0.0,59.957481384277344,-60.973846435546875,39.86436462402344,-31.381563186645508,22.887306213378906,0.0
685,-2.94140625,-3.82470703125,-4.9296875,502.0,-500.0,330.0,-33.67407989501953,25.240314483642578,0.0,59.99580383300781,-61.01201248168945,39.889556884765625,-31.36484146118164,22.871295928955078,0.0
690,-2.9443359375,-3.82275390625,-4.921630859375,481.0,-483.0,345.0,-33.68552017211914,25.289148330688477,0.0,60.03252029418945,-61.04888153076172,39.9158935546875,-31.349868774414062,22.85706901550293,0.0
695,-2.942138671875,-3.82666015625,-4.927001953125,471.0,-487.0,351.0,-33.69647216796875,25.249088287353516,0.0,60.06847381591797,-61.086055755615234,39.94268798828125,-31.335796356201172,22.84220314025879,0.0
700,-2.94091796875,-3.82666015625,-4.922607421875,488.0,-470.0,311.0,-33.716758728027344,25.252216339111328,0.0,60.1057243347168,-61.12193298339844,39.966426849365234,-31.320655822753906,22.828691482543945,0.0
705,-2.939453125,-3.824951171875,-4.927734375,473.0,-516.0,331.0,-33.688106536865234,25.230571746826172,0.0,60.14183044433594,-61.16132354736328,39.991695404052734,-31.306434631347656,22.81153106689453,0.0
711,-2.9453125,-3.825927734375,-4.920654296875,494.0,-499.0,333.0,-33.709022521972656,25.292308807373047,0.0,60.17953872680664,-61.19941329956055,40.01711654663086,-31.290849685668945,22.796276092529297,0.0
716,-2.946044921875,-3.82861328125,-4.917724609375,472.0,-483.0,338.0,-33.73744583129883,25.300168991088867,0.0,60.222774505615234,-61.243656158447266,40.04807662963867,-31.2701416015625,22.775087356567383,0.0
721,-2.94580078125,-3.829833984375,-4.9287109375,485.0,-491.0,358.0,-33.70298767089844,25.26491355895996,0.0,60.259796142578125,-61.28113555908203,40.07540512084961,-31.255373001098633,22.760377883911133,0.0
726,-2.9462890625,-3.823974609375,-4.927490234375,461.0,-503.0,353.0,-33.66617202758789,25.284738540649414,0.0,60.294986724853516,-61.31953430175781,40.102352142333984,-31.24213218688965,22.744977951049805,0.0
731,-2.945068359375,-3.8271484375,-4.924560546875,479.0,-472.0,363.0,-33.70258331298828,25.276870727539062,0.0,60.33155059814453,-61.35556411743164,40.130062103271484,-31.227882385253906,22.73189926147461,0.0
736,-2.943115234375,-3.828857421875,-4.92626953125,482.0,-504.0,348.0,-33.71224594116211,25.253698348999023,0.0,60.368343353271484,-61.394039154052734,40.1566276550293,-31.213531494140625,22.716217041015625,0.0
741,-2.943603515625,-3.82666015625,-4.921142578125,473.0,-494.0,339.0,-33.71620178222656,25.27650260925293,0.0,60.404449462890625,-61.43174743652344,40.1825065612793,-31.199935913085938,22.7015438079834,0.0
746,-2.943603515625,-3.82373046875,-4.9267578125,473.0,-499.0,342.0,-33.67372512817383,25.267147064208984,0.0,60.440555572509766,-61.4698371887207,40.208614349365234,-31.185998916625977,22.68644905090332,0.0
751,-2.9443359375,-3.8310546875,-4.9189453125,475.0,-494.0,311.0,-33.753536224365234,25.278581619262695,0.0,60.47681427001953,-61.507545471191406,40.23235321044922,-31.172651290893555,22.671878814697266,0.0
756,-2.94482421875,-3.822509765625,-4.92431640625,465.0,-479.0,318.0,-33.672054290771484,25.285818099975586,0.0,60.51231002807617,-61.54410934448242,40.25662612915039,-31.15937614440918,22.658546447753906,0.0
761,-2.94482421875,-3.82373046875,-4.920654296875,490.0,-487.0,299.0,-33.694984436035156,25.293428421020508,0.0,60.549713134765625,-61.58128356933594,40.279449462890625,-31.14444351196289,22.64470672607422,0.0
766,-2.943603515625,-3.828125,-4.930419921875,485.0,-493.0,326.0,-33.68961715698242,25.247346878051758,0.0,60.586734771728516,-61.61891555786133,40.30433654785156,-31.1298885345459,22.630046844482422,0.0
771,-2.939208984375,-3.83251953125,-4.91357421875,488.0,-481.0,312.0,-33.797122955322266,25.251876831054688,0.0,60.623985290527344,-61.65563201904297,40.32815170288086,-31.116085052490234,22.616378784179688,0.0
776,-2.943115234375,-3.822509765625,-4.925537109375,471.0,-505.0,333.0,-33.671268463134766,25.269554138183594,0.0,60.65993881225586,-61.694183349609375,40.353572845458984,-31.10251808166504,22.601083755493164,0.0
781,-2.943115234375,-3.826416015625,-4.927978515625,461.0,-475.0,336.0,-33.68861770629883,25.254222869873047,0.0,60.69512939453125,-61.73044204711914,40.37922286987305,-31.089893341064453,22.58797836303711,0.0
786,-2.939208984375,-3.827880859375,-4.91650390625,489.0,-515.0,359.0,-33.75343322753906,25.253793716430664,0.0,60.73245620727539,-61.76975631713867,40.4066276550293,-31.075735092163086,22.571874618530273,0.0
791,-2.94287109375,-3.82373046875,-4.919189453125,489.0,-496.0,376.0,-33.70541000366211,25.282854080200195,0.0,60.76978302001953,-61.8076171875,40.43532943725586,-31.061208724975586,22.557514190673828,0.0
796,-2.942626953125,-3.822265625,-4.92333984375,484.0,-520.0,353.0,-33.67942428588867,25.272573471069336,0.0,60.80672836303711,-61.847312927246094,40.462276458740234,-31.046886444091797,22.54129409790039,0.0
801,-2.943603515625,-3.82958984375,-4.92724609375,491.0,-486.0,335.0,-33.71228790283203,25.253040313720703,0.0,60.844207763671875,-61.8844108581543,40.487850189208984,-31.032360076904297,22.52754020690918,0.0
806,-2.942626953125,-3.82177734375,-4.923828125,468.0,-479.0,328.0,-33.67411422729492,25.272268295288086,0.0,60.87993240356445,-61.92097473144531,40.51288986206055,-31.01930046081543,22.51451873779297,0.0
811,-2.9462890625,-3.82421875,-4.92041015625,491.0,-475.0,326.0,-33.695858001708984,25.304059982299805,0.0,60.91741180419922,-61.95723342895508,40.537776947021484,-31.004718780517578,22.502103805541992,0.0
816,-2.94287109375,-3.8291015625,-4.92724609375,471.0,-497.0,334.0,-33.71064758300781,25.24860191345215,0.0,60.953365325927734,-61.99517059326172,40.56327438354492,-30.9918270111084,22.48758316040039,0.0
821,-2.934814453125,-3.823486328125,-4.92529296875,494.0,-492.0,326.0,-33.6985969543457,25.205703735351562,0.0,60.99107360839844,-62.0327262878418,40.58816146850586,-30.977127075195312,22.473129272460938,0.0
826,-2.943115234375,-3.822265625,-4.923095703125,473.0,-497.0,312.0,-33.679237365722656,25.276927947998047,0.0,61.02717971801758,-62.07066345214844,40.611976623535156,-30.96390724182129,22.458942413330078,0.0
831,-2.94384765625,-3.8251953125,-4.921142578125,491.0,-516.0,321.0,-33.70549392700195,25.28152847290039,0.0,61.064659118652344,-62.11005401611328,40.63648223876953,-30.949583053588867,22.443401336669922,0.0
836,-2.939208984375,-3.83251953125,-4.92626953125,491.0,-479.0,315.0,-33.74677658081055,25.216392517089844,0.0,61.10213851928711,-62.1466178894043,40.660526275634766,-30.935651779174805,22.43017578125,0.0
841,-2.94287109375,-3.8251953125,-4.9267578125,461.0,-497.0,347.0,-33.685585021972656,25.258459091186523,0.0,61.1373291015625,-62.18455505371094,40.687015533447266,-30.92353057861328,22.415977478027344,0.0
847,-2.945556640625,-3.829345703125,-4.925537109375,490.0,-511.0,355.0,-33.712745666503906,25.27302360534668,0.0,61.17473220825195,-62.22356414794922,40.714115142822266,-30.909469604492188,22.40088653564453,0.0
852,-2.942626953125,-3.82763671875,-4.919677734375,465.0,-483.0,340.0,-33.7310676574707,25.27113914489746,0.0,61.21732711791992,-62.26780700683594,40.74525833129883,-30.890514373779297,22.38069725036621,0.0
857,-2.945068359375,-3.825927734375,-4.921630859375,471.0,-489.0,350.0,-33.70573806762695,25.287736892700195,0.0,61.25328063964844,-62.30513381958008,40.771976470947266,-30.878026962280273,22.36760139465332,0.0
862,-2.94970703125,-3.8232421875,-4.91943359375,469.0,-505.0,331.0,-33.68486404418945,25.334609985351562,0.0,61.28908157348633,-62.343685150146484,40.797245025634766,-30.865554809570312,22.353717803955078,0.0
867,-2.940673828125,-3.827392578125,-4.92626953125,470.0,-499.0,324.0,-33.7078971862793,25.238540649414062,0.0,61.32495880126953,-62.38177490234375,40.82197952270508,-30.85323143005371,22.33954620361328,0.0
872,-2.94482421875,-3.827392578125,-4.921875,474.0,-490.0,320.0,-33.71547317504883,25.282028198242188,0.0,61.361141204833984,-62.4191780090332,40.84640884399414,-30.840702056884766,22.326459884643555,0.0
877,-2.943359375,-3.822509765625,-4.919921875,462.0,-477.0,305.0,-33.692909240722656,25.287132263183594,0.0,61.39640808105469,-62.455589294433594,40.86968994140625,-30.828933715820312,22.31443977355957,0.0
882,-2.939453125,-3.82861328125,-4.920166015625,483.0,-488.0,324.0,-33.74340057373047,25.243785858154297,0.0,61.43327713012695,-62.49283981323242,40.89442443847656,-30.816017150878906,22.301265716552734,0.0
887,-2.942138671875,-3.829345703125,-4.925537109375,466.0,-506.0,324.0,-33.720829010009766,25.247350692749023,0.0,61.468849182128906,-62.53146743774414,40.919158935546875,-30.80424690246582,22.286800384521484,0.0
892,-2.941162109375,-3.824462890625,-4.925048828125,484.0,-499.0,330.0,-33.691322326660156,25.251996994018555,0.0,61.505794525146484,-62.569557189941406,40.94435119628906,-30.79090690612793,22.27295684814453,0.0
897,-2.940185546875,-3.829833984375,-4.92041015625,481.0,-482.0,343.0,-33.7491340637207,25.24595069885254,0.0,61.542510986328125,-62.60634994506836,40.97053527832031,-30.778305053710938,22.260398864746094,0.0
902,-2.93896484375,-3.8271484375,-4.923583984375,475.0,-497.0,343.0,-33.72088623046875,25.233739852905273,0.0,61.57876968383789,-62.644287109375,40.99671936035156,-30.765972137451172,22.246646881103516,0.0
907,-2.944091796875,-3.827880859375,-4.929443359375,494.0,-470.0,364.0,-33.69063949584961,25.254274368286133,0.0,61.616477966308594,-62.6801643371582,41.024505615234375,-30.751995086669922,22.235153198242188,0.0
912,-2.94482421875,-3.831298828125,-4.921142578125,485.0,-506.0,351.0,-33.745365142822266,25.27556800842285,0.0,61.653499603271484,-62.71879196166992,41.051300048828125,-30.73918914794922,22.221134185791016,0.0
917,-2.940673828125,-3.830078125,-4.928955078125,482.0,-485.0,345.0,-33.7158203125,25.22519874572754,0.0,61.69029235839844,-62.75581359863281,41.07763671875,-30.726417541503906,22.208354949951172,0.0
922,-2.942626953125,-3.822021484375,-4.92626953125,496.0,-494.0,349.0,-33.66614532470703,25.264892578125,0.0,61.728153228759766,-62.793521881103516,41.104278564453125,-30.712234497070312,22.195253372192383,0.0
927,-2.9443359375,-3.822998046875,-4.929443359375,465.0,-501.0,350.0,-33.656314849853516,25.2667179107666,0.0,61.763648986816406,-62.83176803588867,41.13099670410156,-30.70037841796875,22.18168067932129,0.0
932,-2.939453125,-3.827880859375,-4.919921875,470.0,-503.0,341.0,-33.73930358886719,25.246063232421875,0.0,61.79952621459961,-62.87016677856445,41.15702819824219,-30.688838958740234,22.167842864990234,0.0
937,-2.944091796875,-3.824951171875,-4.919677734375,487.0,-492.0,341.0,-33.70902633666992,25.288002014160156,0.0,61.836700439453125,-62.90772247314453,41.18305969238281,-30.675806045532227,22.155221939086914,0.0
942,-2.947021484375,-3.827880859375,-4.924072265625,488.0,-485.0,346.0,-33.704952239990234,25.29131507873535,0.0,61.87395095825195,-62.94474411010742,41.20947265625,-30.66271209716797,22.143198013305664,0.0
947,-2.941650390625,-3.830810546875,-4.924072265625,471.0,-513.0,304.0,-33.7379035949707,25.244592666625977,0.0,61.90990447998047,-62.98390579223633,41.2326774597168,-30.651214599609375,22.128725051879883,0.0
952,-2.94677734375,-3.829345703125,-4.9306640625,473.0,-512.0,329.0,-33.6895866394043,25.267839431762695,0.0,61.94601058959961,-63.02299118041992,41.25779342651367,-30.639223098754883,22.11456871032715,0.0
957,-2.941162109375,-3.82568359375,-4.927001953125,490.0,-504.0,336.0,-33.69203186035156,25.243873596191406,0.0,61.98341369628906,-63.061466217041016,41.283443450927734,-30.626001358032227,22.100887298583984,0.0
962,-2.94580078125,-3.826416015625,-4.923828125,487.0,-493.0,355.0,-33.69868469238281,25.286020278930664,0.0,62.02058792114258,-63.099098205566406,41.310543060302734,-30.613109588623047,22.08841896057129,0.0
967,-2.940185546875,-3.82763671875,-4.923095703125,495.0,-483.0,354.0,-33.72330856323242,25.24321937561035,0.0,62.058372497558594,-63.13596725463867,41.33756637573242,-30.599853515625,22.076417922973633,0.0
972,-2.9423828125,-3.828125,-4.922607421875,479.0,-493.0,378.0,-33.72341537475586,25.260038375854492,0.0,62.09493637084961,-63.17359924316406,41.36642074584961,-30.587860107421875,22.063831329345703,0.0
977,-2.944091796875,-3.82568359375,-4.920654296875,483.0,-489.0,323.0,-33.710227966308594,25.283668518066406,0.0,62.131805419921875,-63.2109260559082,41.39107894897461,-30.575502395629883,22.051776885986328,0.0
983,-2.946044921875,-3.8291015625,-4.920654296875,479.0,-502.0,339.0,-33.729225158691406,25.290895462036133,0.0,62.16836929321289,-63.24924850463867,41.41695785522461,-30.563640594482422,22.038835525512695,0.0
988,-2.945556640625,-3.8212890625,-4.921142578125,472.0,-518.0,344.0,-33.67443084716797,25.302885055541992,0.0,62.211605072021484,-63.29669952392578,41.44847106933594,-30.54483985900879,22.017038345336914,0.0
993,-2.94384765625,-3.82275390625,-4.924560546875,485.0,-488.0,323.0,-33.675086975097656,25.277263641357422,0.0,62.248626708984375,-63.33395004272461,41.47312927246094,-30.532302856445312,22.005279541015625,0.0
998,-2.94140625,-3.825927734375,-4.92626953125,460.0,-469.0,321.0,-33.696041107177734,25.24722671508789,0.0,62.28374099731445,-63.3697509765625,41.49763488769531,-30.521869659423828,21.994768142700195,0.0
1003,-2.941162109375,-3.829345703125,-4.921875,476.0,-505.0,352.0,-33.73764419555664,25.250255584716797,0.0,62.32007598876953,-63.408302307128906,41.524505615234375,-30.510576248168945,21.981584548950195,0.0
1008,-2.944580078125,-3.822509765625,-4.928466796875,472.0,-503.0,315.0,-33.65622329711914,25.272348403930664,0.0,62.35610580444336,-63.44670104980469,41.54854965209961,-30.498998641967773,21.968772888183594,0.0
1013,-2.938720703125,-3.825439453125,-4.930908203125,502.0,-490.0,358.0,-33.68064880371094,25.215131759643555,0.0,62.39442825317383,-63.48410415649414,41.57587814331055,-30.485376358032227,21.95655632019043,0.0
1018,-2.947021484375,-3.82861328125,-4.92041015625,462.0,-494.0,355.0,-33.72450256347656,25.29998016357422,0.0,62.42969512939453,-63.521812438964844,41.60297775268555,-30.475177764892578,21.944730758666992,0.0
1023,-2.943359375,-3.82373046875,-4.927978515625,499.0,-488.0,347.0,-33.66947555541992,25.26189422607422,0.0,62.4677848815918,-63.55906295776367,41.62946701049805,-30.4617862701416,21.9331111907959,0.0
1028,-2.945068359375,-3.820556640625,-4.918212890625,483.0,-483.0,350.0,-33.68210983276367,25.30903434753418,0.0,62.50465393066406,-63.59593200683594,41.656185150146484,-30.449758529663086,21.922269821166992,0.0
1033,-2.940673828125,-3.828369140625,-4.916748046875,482.0,-504.0,339.0,-33.75236892700195,25.2630615234375,0.0,62.541446685791016,-63.63440704345703,41.682064056396484,-30.438386917114258,21.90952491760254,0.0
1038,-2.9462890625,-3.827880859375,-4.925537109375,480.0,-480.0,332.0,-33.70089340209961,25.28171157836914,0.0,62.578086853027344,-63.67104721069336,41.7074089050293,-30.426816940307617,21.898788452148438,0.0
1043,-2.94482421875,-3.82421875,-4.922607421875,496.0,-477.0,334.0,-33.69063186645508,25.286888122558594,0.0,62.61594772338867,-63.70745849609375,41.732906341552734,-30.41400146484375,21.888355255126953,0.0
1048,-2.945556640625,-3.827392578125,-4.921630859375,487.0,-495.0,327.0,-33.71470642089844,25.28821563720703,0.0,62.65312194824219,-63.745243072509766,41.757869720458984,-30.402101516723633,21.87660026550293,0.0
1053,-2.941650390625,-3.826171875,-4.926025390625,480.0,-487.0,359.0,-33.6981201171875,25.249216079711914,0.0,62.689762115478516,-63.78241729736328,41.785274505615234,-30.390653610229492,21.86520004272461,0.0
1058,-2.9453125,-3.820068359375,-4.926025390625,482.0,-490.0,319.0,-33.64725875854492,25.290006637573242,0.0,62.72655487060547,-63.819820404052734,41.809627532958984,-30.378713607788086,21.853923797607422,0.0
1063,-2.9423828125,-3.825439453125,-4.922607421875,482.0,-483.0,343.0,-33.70485305786133,25.26588249206543,0.0,62.76334762573242,-63.856689453125,41.835811614990234,-30.36725425720215,21.843036651611328,0.0
1068,-2.93798828125,-3.828857421875,-4.923828125,474.0,-487.0,342.0,-33.734039306640625,25.222000122070312,0.0,62.799530029296875,-63.893863677978516,41.86191940307617,-30.356666564941406,21.831554412841797,0.0
1073,-2.943603515625,-3.822021484375,-4.92041015625,485.0,-510.0,330.0,-33.68701934814453,25.28866195678711,0.0,62.836551666259766,-63.932796478271484,41.88711166381836,-30.344928741455078,21.81887435913086,0.0
1078,-2.946044921875,-3.8251953125,-4.91943359375,472.0,-472.0,313.0,-33.707054138183594,25.302833557128906,0.0,62.872581481933594,-63.96882629394531,41.91100311279297,-30.334373474121094,21.809232711791992,0.0
1083,-2.940673828125,-3.8291015625,-4.924560546875,476.0,-493.0,356.0,-33.72647476196289,25.239606857299805,0.0,62.90891647338867,-64.00646209716797,41.93817901611328,-30.323699951171875,21.797555923461914,0.0
1088,-2.94677734375,-3.821044921875,-4.925537109375,498.0,-503.0,365.0,-33.65248107910156,25.30025863647461,0.0,62.946929931640625,-64.04486083984375,41.966041564941406,-30.31084442138672,21.785621643066406,0.0
1093,-2.942626953125,-3.8212890625,-4.92578125,473.0,-504.0,329.0,-33.66301345825195,25.267854690551758,0.0,62.983036041259766,-64.08333587646484,41.99115753173828,-30.300018310546875,21.77341651916504,0.0
1098,-2.944091796875,-3.83203125,-4.921142578125,472.0,-475.0,364.0,-33.752159118652344,25.268470764160156,0.0,63.019065856933594,-64.11959838867188,42.018943786621094,-30.289974212646484,21.763465881347656,0.0
1103,-2.939208984375,-3.830078125,-4.923583984375,466.0,-499.0,353.0,-33.74055480957031,25.229204177856445,0.0,63.05463790893555,-64.1576919555664,42.04589080810547,-30.28033447265625,21.75143814086914,0.0
1108,-2.945068359375,-3.82470703125,-4.925537109375,478.0,-509.0,317.0,-33.68184280395508,25.279449462890625,0.0,63.09112548828125,-64.19654846191406,42.07008743286133,-30.269380569458008,21.739076614379883,0.0
1113,-2.945068359375,-3.82958984375,-4.92578125,474.0,-504.0,307.0,-33.714622497558594,25.26814079284668,0.0,63.1273078918457,-64.23502349853516,42.09352111816406,-30.259017944335938,21.727062225341797,0.0
1118,-2.943603515625,-3.82861328125,-4.923828125,490.0,-496.0,336.0,-33.71907043457031,25.26473045349121,0.0,63.164710998535156,-64.27288818359375,42.119171142578125,-30.247512817382812,21.715679168701172,0.0
1124,-2.9423828125,-3.824951171875,-4.922607421875,471.0,-479.0,311.0,-33.70147705078125,25.26694679260254,0.0,63.207855224609375,-64.31676483154297,42.14765930175781,-30.230297088623047,21.698455810546875,0.0
1129,-2.94384765625,-3.82275390625,-4.919189453125,479.0,-492.0,297.0,-33.69633865356445,25.292325973510742,0.0,63.24441909790039,-64.35432434082031,42.17033004760742,-30.219661712646484,21.687782287597656,0.0
1134,-2.939208984375,-3.827880859375,-4.922119140625,492.0,-485.0,313.0,-33.73117446899414,25.238079071044922,0.0,63.28197479248047,-64.39134979248047,42.19422149658203,-30.208341598510742,21.677278518676758,0.0
1139,-2.94140625,-3.82373046875,-4.92041015625,472.0,-484.0,316.0,-33.704044342041016,25.26841926574707,0.0,63.3180046081543,-64.42829895019531,42.21834182739258,-30.198383331298828,21.6671142578125,0.0
1144,-2.939697265625,-3.828125,-4.92626953125,493.0,-503.0,367.0,-33.71526336669922,25.229610443115234,0.0,63.35563659667969,-64.4666976928711,42.24635696411133,-30.186952590942383,21.655263900756836,0.0
1149,-2.940185546875,-3.826171875,-4.92138671875,496.0,-500.0,354.0,-33.71995162963867,25.251190185546875,0.0,63.393497467041016,-64.50486755371094,42.273380279541016,-30.175378799438477,21.643850326538086,0.0
1154,-2.944091796875,-3.82568359375,-4.923828125,482.0,-505.0,363.0,-33.69766616821289,25.2747745513916,0.0,63.43029022216797,-64.54341888427734,42.301090240478516,-30.164749145507812,21.632278442382812,0.0
1159,-2.943115234375,-3.826904296875,-4.922119140625,483.0,-490.0,369.0,-33.715179443359375,25.26956558227539,0.0,63.467159271240234,-64.58082580566406,42.32925796508789,-30.154216766357422,21.62185287475586,0.0
1164,-2.943359375,-3.82666015625,-4.913330078125,465.0,-496.0,350.0,-33.74773025512695,25.29656410217285,0.0,63.502655029296875,-64.61869049072266,42.35597610473633,-30.14533042907715,21.6112117767334,0.0
1169,-2.942138671875,-3.828857421875,-4.923095703125,486.0,-484.0,333.0,-33.72712326049805,25.25524139404297,0.0,63.53975296020508,-64.6556396484375,42.38139724731445,-30.13473129272461,21.601219177246094,0.0
1174,-2.94384765625,-3.8212890625,-4.927001953125,496.0,-495.0,331.0,-33.65530014038086,25.273605346679688,0.0,63.577613830566406,-64.69342803955078,42.40666580200195,-30.122892379760742,21.590566635131836,0.0
1179,-2.9453125,-3.824462890625,-4.925048828125,478.0,-488.0,311.0,-33.68151092529297,25.28318214416504,0.0,63.61410140991211,-64.73068237304688,42.43040466308594,-30.112661361694336,21.580556869506836,0.0
1184,-2.9443359375,-3.82470703125,-4.92431640625,455.0,-512.0,339.0,-33.68840408325195,25.277366638183594,0.0,63.648834228515625,-64.76976776123047,42.45628356933594,-30.104267120361328,21.5687255859375,0.0
1189,-2.942626953125,-3.827392578125,-4.923095703125,478.0,-490.0,319.0,-33.715843200683594,25.262100219726562,0.0,63.68532180786133,-64.80717468261719,42.48063659667969,-30.094356536865234,21.558502197265625,0.0
1194,-2.94384765625,-3.822998046875,-4.919921875,490.0,-494.0,316.0,-33.69512939453125,25.28973960876465,0.0,63.72272491455078,-64.84488677978516,42.504756927490234,-30.083425521850586,21.5482177734375,0.0
1199,-2.94189453125,-3.824951171875,-4.923583984375,484.0,-479.0,353.0,-33.69876480102539,25.260540008544922,0.0,63.75967025756836,-64.88145446777344,42.53170394897461,-30.073022842407227,21.53890037536621,0.0
1204,-2.943115234375,-3.824462890625,-4.926025390625,481.0,-487.0,345.0,-33.68284225463867,25.263938903808594,0.0,63.79638671875,-64.91863250732422,42.558040618896484,-30.062776565551758,21.529035568237305,0.0
1209,-2.939208984375,-3.824462890625,-4.922607421875,494.0,-482.0,355.0,-33.705604553222656,25.24414825439453,0.0,63.8340950012207,-64.95542907714844,42.585140228271484,-30.051753997802734,21.519445419311523,0.0
1214,-2.94384765625,-3.8310546875,-4.918212890625,497.0,-495.0,392.0,-33.75759506225586,25.27696418762207,0.0,63.872032165527344,-64.99321746826172,42.61506271362305,-30.040929794311523,21.50914764404297,0.0
1219,-2.944091796875,-3.826904296875,-4.922119140625,471.0,-490.0,358.0,-33.712867736816406,25.276905059814453,0.0,63.90798568725586,-65.03062438964844,42.642391204833984,-30.031801223754883,21.499269485473633,0.0
1224,-2.94970703125,-3.82666015625,-4.920654296875,477.0,-491.0,359.0,-33.703670501708984,25.3237247467041,0.0,63.94439697265625,-65.06810760498047,42.669795989990234,-30.022186279296875,21.489694595336914,0.0
1229,-2.943359375,-3.8330078125,-4.921142578125,491.0,-478.0,336.0,-33.76063919067383,25.260841369628906,0.0,63.981876373291016,-65.10459899902344,42.6954460144043,-30.011960983276367,21.480690002441406,0.0
1234,-2.941650390625,-3.82373046875,-4.9169921875,481.0,-508.0,339.0,-33.717002868652344,25.279836654663086,0.0,64.01859283447266,-65.14337921142578,42.7213249206543,-30.002222061157227,21.46958351135254,0.0
1239,-2.943603515625,-3.82177734375,-4.927490234375,473.0,-503.0,311.0,-33.657325744628906,25.26934051513672,0.0,64.05470275878906,-65.18177795410156,42.74506378173828,-29.99270248413086,21.458829879760742,0.0
1244,-2.945556640625,-3.82666015625,-4.920654296875,471.0,-504.0,327.0,-33.71350860595703,25.29254913330078,0.0,64.09066009521484,-65.22025299072266,42.77002716064453,-29.98377799987793,21.44821548461914,0.0
1249,-2.9423828125,-3.82568359375,-4.92041015625,471.0,-477.0,310.0,-33.715240478515625,25.271507263183594,0.0,64.12661743164062,-65.25666809082031,42.7936897277832,-29.97490119934082,21.439544677734375,0.0
1254,-2.945556640625,-3.8271484375,-4.9208984375,509.0,-498.0,342.0,-33.71591567993164,25.290800094604492,0.0,64.16547393798828,-65.29468536376953,42.81979751586914,-29.963184356689453,21.429452896118164,0.0
1260,-2.94091796875,-3.8232421875,-4.920654296875,483.0,-480.0,331.0,-33.70085525512695,25.265127182006836,0.0,64.209716796875,-65.33865356445312,42.85011672973633,-29.946138381958008,21.41338348388672,0.0
1265,-2.94287109375,-3.828369140625,-4.923583984375,467.0,-504.0,345.0,-33.7200813293457,25.26044273376465,0.0,64.24536895751953,-65.37712860107422,42.8764533996582,-29.93785858154297,21.40282440185547,0.0
1270,-2.947265625,-3.827392578125,-4.9208984375,490.0,-465.0,368.0,-33.71355438232422,25.3031063079834,0.0,64.28277587890625,-65.41262817382812,42.904544830322266,-29.927818298339844,21.39557456970215,0.0
1275,-2.94384765625,-3.825439453125,-4.9208984375,481.0,-489.0,350.0,-33.70814895629883,25.281681060791016,0.0,64.31949615478516,-65.44995880126953,42.9312629699707,-29.91846466064453,21.38637351989746,0.0
1280,-2.946044921875,-3.8291015625,-4.922119140625,460.0,-511.0,370.0,-33.723426818847656,25.286792755126953,0.0,64.3546142578125,-65.48896789550781,42.95950698852539,-29.910852432250977,21.375579833984375,0.0
1285,-2.9423828125,-3.8291015625,-4.919189453125,482.0,-475.0,304.0,-33.74370193481445,25.267478942871094,0.0,64.39141082763672,-65.52523040771484,42.98271179199219,-29.901744842529297,21.3674259185791,0.0
1290,-2.943115234375,-3.825927734375,-4.9228515625,478.0,-489.0,318.0,-33.705528259277344,25.26963996887207,0.0,64.42790222167969,-65.56256103515625,43.00698471069336,-29.8927059173584,21.358257293701172,0.0
1295,-2.943359375,-3.828125,-4.928955078125,477.0,-496.0,341.0,-33.69598388671875,25.249610900878906,0.0,64.46431732177734,-65.60042572021484,43.033016204833984,-29.88371467590332,21.348453521728516,0.0
1300,-2.94140625,-3.828857421875,-4.924560546875,491.0,-499.0,339.0,-33.723052978515625,25.24563980102539,0.0,64.50180053710938,-65.63851928710938,43.058895111083984,-29.873891830444336,21.338436126708984,0.0
1305,-2.943603515625,-3.825439453125,-4.919921875,464.0,-486.0,315.0,-33.71259307861328,25.282583236694336,0.0,64.53722381591797,-65.67562103271484,43.08293914794922,-29.866085052490234,21.3297119140625,0.0
1310,-2.941162109375,-3.825927734375,-4.923828125,483.0,-468.0,344.0,-33.70628356933594,25.252227783203125,0.0,64.5740966796875,-65.71134948730469,43.10919952392578,-29.856822967529297,21.322174072265625,0.0
1315,-2.943115234375,-3.83056640625,-4.923095703125,482.0,-480.0,346.0,-33.73661804199219,25.258859634399414,0.0,64.61089324951172,-65.74799346923828,43.13561248779297,-29.84789276123047,21.313798904418945,0.0
1320,-2.94140625,-3.828369140625,-4.9267578125,482.0,-504.0,348.0,-33.71097946166992,25.240554809570312,0.0,64.64768981933594,-65.78646850585938,43.16217803955078,-29.838817596435547,21.303510665893555,0.0
1325,-2.943359375,-3.82666015625,-4.9228515625,499.0,-497.0,338.0,-33.71001434326172,25.269880294799805,0.0,64.68578338623047,-65.82440948486328,43.18798065185547,-29.828487396240234,21.294008255004883,0.0
1330,-2.939697265625,-3.828369140625,-4.927978515625,492.0,-493.0,359.0,-33.71018600463867,25.224302291870117,0.0,64.72334289550781,-65.86204528808594,43.21538543701172,-29.818737030029297,21.284528732299805,0.0
1335,-2.94384765625,-3.82861328125,-4.9248046875,471.0,-491.0,341.0,-33.71462631225586,25.263830184936523,0.0,64.7593002319336,-65.89952850341797,43.241416931152344,-29.810657501220703,21.275522232055664,0.0
1340,-2.944580078125,-3.82568359375,-4.924072265625,474.0,-506.0,351.0,-33.6955451965332,25.277759552001953,0.0,64.79548645019531,-65.93815612792969,43.268211364746094,-29.802248001098633,21.265518188476562,0.0
1345,-2.94384765625,-3.826416015625,-4.918701171875,480.0,-465.0,349.0,-33.723602294921875,25.285709381103516,0.0,64.8321304321289,-65.9736557006836,43.29485321044922,-29.793617248535156,21.258724212646484,0.0
1350,-2.945556640625,-3.828857421875,-4.92431640625,473.0,-506.0,330.0,-33.714202880859375,25.277503967285156,0.0,64.86824035644531,-66.01228332519531,43.320045471191406,-29.785490036010742,21.248788833618164,0.0
1355,-2.941162109375,-3.820068359375,-4.92919921875,483.0,-485.0,297.0,-33.644508361816406,25.24991798400879,0.0,64.90511322021484,-66.04930877685547,43.342716217041016,-29.77614402770996,21.24029541015625,0.0
1360,-2.943115234375,-3.826416015625,-4.926513671875,472.0,-479.0,309.0,-33.69441223144531,25.258323669433594,0.0,64.94114685058594,-66.08587646484375,43.366302490234375,-29.768030166625977,21.23235321044922,0.0
1365,-2.94189453125,-3.825927734375,-4.9248046875,473.0,-505.0,327.0,-33.700687408447266,25.25499725341797,0.0,64.97725677490234,-66.12442779541016,43.391265869140625,-29.759918212890625,21.222450256347656,0.0
1370,-2.9423828125,-3.8251953125,-4.919921875,476.0,-488.0,342.0,-33.71379852294922,25.27393913269043,0.0,65.01359558105469,-66.16168212890625,43.41737365722656,-29.751707077026367,21.21401596069336,0.0
1375,-2.943603515625,-3.828125,-4.92138671875,455.0,-488.0,347.0,-33.72536087036133,25.272628784179688,0.0,65.04833221435547,-66.19893646240234,43.44386291503906,-29.74520492553711,21.205610275268555,0.0
1380,-2.94140625,-3.833251953125,-4.913818359375,479.0,-488.0,339.0,-33.795997619628906,25.266117095947266,0.0,65.08489990234375,-66.23619079589844,43.46974182128906,-29.737403869628906,21.197195053100586,0.0
1385,-2.94287109375,-3.826416015625,-4.9189453125,471.0,-495.0,368.0,-33.72494888305664,25.277685165405273,0.0,65.12085723876953,-66.27397918701172,43.497833251953125,-29.72974395751953,21.18836784362793,0.0
1390,-2.945556640625,-3.82275390625,-4.9248046875,498.0,-501.0,356.0,-33.670082092285156,25.2894229888916,0.0,65.15887451171875,-66.31222534179688,43.52500915527344,-29.719682693481445,21.179208755493164,0.0
1396,-2.93896484375,-3.8271484375,-4.918701171875,476.0,-502.0,347.0,-33.740234375,25.24740219116211,0.0,65.20247650146484,-66.35820770263672,43.55679702758789,-29.704692840576172,21.16219139099121,0.0
1401,-2.94384765625,-3.825439453125,-4.9248046875,500.0,-502.0,332.0,-33.692691802978516,25.270736694335938,0.0,65.24064636230469,-66.39653015136719,43.5821418762207,-29.69485092163086,21.153045654296875,0.0
1406,-2.94384765625,-3.82568359375,-4.925048828125,488.0,-501.0,336.0,-33.69341278076172,25.269521713256836,0.0,65.27790069580078,-66.43477630615234,43.607791900634766,-29.685970306396484,21.14400863647461,0.0
1411,-2.943115234375,-3.82470703125,-4.92529296875,475.0,-502.0,326.0,-33.68742752075195,25.265459060668945,0.0,65.31416320800781,-66.47309875488281,43.6326789855957,-29.678075790405273,21.13490867614746,0.0
1416,-2.9384765625,-3.82861328125,-4.920654296875,480.0,-489.0,334.0,-33.7437744140625,25.235076904296875,0.0,65.3508071899414,-66.51042938232422,43.65817642211914,-29.670230865478516,21.126623153686523,0.0
1421,-2.94384765625,-3.825927734375,-4.921875,487.0,-476.0,315.0,-33.70766067504883,25.27787971496582,0.0,65.38798522949219,-66.54676818847656,43.682220458984375,-29.661636352539062,21.119661331176758,0.0
1426,-2.941650390625,-3.82470703125,-4.925048828125,458.0,-488.0,333.0,-33.691856384277344,25.25513458251953,0.0,65.4229507446289,-66.58402252197266,43.7076416015625,-29.655168533325195,21.111658096313477,0.0
1431,-2.93896484375,-3.826904296875,-4.927001953125,485.0,-515.0,317.0,-33.705657958984375,25.224708557128906,0.0,65.45997619628906,-66.62333679199219,43.73183822631836,-29.64677619934082,21.101430892944336,0.0
1436,-2.94140625,-3.824462890625,-4.919189453125,460.0,-484.0,332.0,-33.71394348144531,25.270244598388672,0.0,65.4950942993164,-66.66028594970703,43.75718307495117,-29.640377044677734,21.093921661376953,0.0
1441,-2.945068359375,-3.826171875,-4.9306640625,469.0,-495.0,352.0,-33.67169952392578,25.261903762817383,0.0,65.53089904785156,-66.69807434082031,43.784053802490234,-29.633024215698242,21.085554122924805,0.0
1446,-2.942626953125,-3.829833984375,-4.926025390625,464.0,-503.0,358.0,-33.72111511230469,25.24859046936035,0.0,65.56632232666016,-66.7364730834961,43.81138229370117,-29.626428604125977,21.07652473449707,0.0
1451,-2.946044921875,-3.82373046875,-4.92138671875,478.0,-480.0,346.0,-33.68919372558594,25.30055046081543,0.0,65.60281372070312,-66.77311706542969,43.83779525756836,-29.618574142456055,21.069644927978516,0.0
1456,-2.94482421875,-3.82470703125,-4.923583984375,501.0,-492.0,325.0,-33.690147399902344,25.28308868408203,0.0,65.64105987548828,-66.81067657470703,43.862606048583984,-29.609020233154297,21.0617618560791,0.0
1461,-2.9453125,-3.826416015625,-4.921630859375,477.0,-501.0,346.0,-33.708534240722656,25.28850746154785,0.0,65.67747497558594,-66.84892272949219,43.88901901245117,-29.60146141052246,21.05327033996582,0.0
1466,-2.94140625,-3.829345703125,-4.925537109375,467.0,-503.0,324.0,-33.72256088256836,25.24184799194336,0.0,65.71312713623047,-66.88732147216797,43.913753509521484,-29.59479331970215,21.044342041015625,0.0
1471,-2.943603515625,-3.823974609375,-4.922119140625,485.0,-482.0,346.0,-33.693763732910156,25.27961540222168,0.0,65.75015258789062,-66.92411804199219,43.94016647338867,-29.586585998535156,21.037311553955078,0.0
1476,-2.943115234375,-3.826171875,-4.92138671875,489.0,-495.0,352.0,-33.713016510009766,25.273212432861328,0.0,65.78748321533203,-66.96190643310547,43.967037200927734,-29.578248977661133,21.029281616210938,0.0
1481,-2.941162109375,-3.8291015625,-4.918701171875,497.0,-495.0,332.0,-33.748531341552734,25.259668350219727,0.0,65.82542419433594,-66.99969482421875,43.99238204956055,-29.56959342956543,21.021194458007812,0.0
1486,-2.940185546875,-3.826416015625,-4.925048828125,482.0,-480.0,338.0,-33.70713424682617,25.24040985107422,0.0,65.86222076416016,-67.03633880615234,44.018184661865234,-29.56182861328125,21.014148712158203,0.0
1491,-2.94580078125,-3.821533203125,-4.92822265625,476.0,-488.0,297.0,-33.647552490234375,25.284326553344727,0.0,65.8985595703125,-67.07359313964844,44.040855407714844,-29.554141998291016,21.006834030151367,0.0
1496,-2.94580078125,-3.827392578125,-4.930908203125,467.0,-485.0,332.0,-33.67744064331055,25.264070510864258,0.0,65.93421173095703,-67.1106185913086,44.066200256347656,-29.547380447387695,20.999637603759766,0.0
1501,-2.94189453125,-3.824462890625,-4.926025390625,494.0,-502.0,353.0,-33.685726165771484,25.2547664642334,0.0,65.971923828125,-67.14894104003906,44.09314727783203,-29.538660049438477,20.991121292114258,0.0
1506,-2.943359375,-3.8232421875,-4.9208984375,491.0,-484.0,361.0,-33.69411087036133,25.28279685974121,0.0,66.00940704345703,-67.1858901977539,44.120704650878906,-29.5302677154541,20.98420524597168,0.0
1511,-2.942626953125,-3.82763671875,-4.9228515625,474.0,-483.0,352.0,-33.71849822998047,25.262250900268555,0.0,66.04559326171875,-67.22276306152344,44.14757537841797,-29.52337646484375,20.977252960205078,0.0
1516,-2.9404296875,-3.833251953125,-4.93115234375,489.0,-495.0,369.0,-33.7296142578125,25.210338592529297,0.0,66.08292388916016,-67.26055145263672,44.175743103027344,-29.51545524597168,20.96906280517578,0.0
1521,-2.945556640625,-3.828369140625,-4.923828125,481.0,-507.0,353.0,-33.71276092529297,25.27993392944336,0.0,66.11964416503906,-67.29925537109375,44.20269012451172,-29.5080623626709,20.960485458374023,0.0
1526,-2.9443359375,-3.828125,-4.917724609375,487.0,-501.0,338.0,-33.73812484741211,25.288389205932617,0.0,66.15682220458984,-67.3375015258789,44.228492736816406,-29.500425338745117,20.952465057373047,0.0
1532,-2.940673828125,-3.828125,-4.92529296875,468.0,-488.0,349.0,-33.71682357788086,25.239681243896484,0.0,66.19969177246094,-67.3822021484375,44.26046371459961,-29.487106323242188,20.937816619873047,0.0
1537,-2.943115234375,-3.82421875,-4.923095703125,467.0,-479.0,345.0,-33.692745208740234,25.272676467895508,0.0,66.23534393310547,-67.41876983642578,44.286800384521484,-29.480865478515625,20.931562423706055,0.0
1542,-2.94482421875,-3.8251953125,-4.92529296875,451.0,-496.0,336.0,-33.686763763427734,25.277236938476562,0.0,66.26976776123047,-67.45663452148438,44.31245040893555,-29.47582244873047,20.9240779876709,0.0
1547,-2.94140625,-3.828369140625,-4.927001953125,488.0,-489.0,332.0,-33.71001434326172,25.239871978759766,0.0,66.30702209472656,-67.49396514892578,44.33779525756836,-29.468154907226562,20.916898727416992,0.0
1552,-2.94091796875,-3.8212890625,-4.926025390625,479.0,-476.0,332.0,-33.66608428955078,25.25432586669922,0.0,66.34358978271484,-67.53030395507812,44.36314010620117,-29.460901260375977,20.910839080810547,0.0
1557,-2.943115234375,-3.82080078125,-4.92529296875,491.0,-486.0,329.0,-33.6604118347168,25.273956298828125,0.0,66.38107299804688,-67.5674057006836,44.38825607299805,-29.452733993530273,20.90418243408203,0.0
1562,-2.9462890625,-3.827880859375,-4.922119140625,473.0,-499.0,352.0,-33.714412689208984,25.29128646850586,0.0,66.41718292236328,-67.60549926757812,44.41512680053711,-29.446346282958984,20.896690368652344,0.0
1567,-2.94873046875,-3.8232421875,-4.92529296875,456.0,-476.0,347.0,-33.66402053833008,25.310829162597656,0.0,66.45199584960938,-67.64183807373047,44.44161605834961,-29.440927505493164,20.89111328125,0.0
1572,-2.94580078125,-3.822265625,-4.91748046875,491.0,-485.0,370.0,-33.69509506225586,25.312870025634766,0.0,66.4894790649414,-67.67886352539062,44.4698600769043,-29.433090209960938,20.884889602661133,0.0
1577,-2.943115234375,-3.83154296875,-4.923583984375,494.0,-493.0,359.0,-33.74142837524414,25.255369186401367,0.0,66.52719116210938,-67.71649932861328,44.49726486206055,-29.425384521484375,20.877689361572266,0.0
1582,-2.944091796875,-3.827880859375,-4.921875,466.0,-492.0,338.0,-33.7205810546875,25.275461196899414,0.0,66.5627670288086,-67.75405883789062,44.523067474365234,-29.419696807861328,20.870737075805664,0.0
1587,-2.945556640625,-3.82373046875,-4.91845703125,472.0,-488.0,349.0,-33.701942443847656,25.305099487304688,0.0,66.59880065917969,-67.79131317138672,44.54970932006836,-29.413450241088867,20.86432456970215,0.0
1592,-2.942138671875,-3.826416015625,-4.924560546875,484.0,-499.0,333.0,-33.70444869995117,25.256454467773438,0.0,66.63574981689453,-67.82940673828125,44.575130462646484,-29.40633773803711,20.856773376464844,0.0
1597,-2.942626953125,-3.826171875,-4.914794921875,471.0,-492.0,320.0,-33.74028396606445,25.288013458251953,0.0,66.67170715332031,-67.8669662475586,44.59955978393555,-29.400493621826172,20.850006103515625,0.0
1602,-2.947998046875,-3.819580078125,-4.922607421875,483.0,-499.0,326.0,-33.65103530883789,25.320844650268555,0.0,66.70858001708984,-67.90505981445312,44.624446868896484,-29.393150329589844,20.842967987060547,0.0
1607,-2.9453125,-3.822265625,-4.92626953125,468.0,-501.0,336.0,-33.6614875793457,25.2845401763916,0.0,66.74430847167969,-67.94330596923828,44.65009689331055,-29.387052536010742,20.835561752319336,0.0
1612,-2.94140625,-3.826904296875,-4.9189453125,486.0,-502.0,331.0,-33.73179626464844,25.265609741210938,0.0,66.78141021728516,-67.98162841796875,44.67536544799805,-29.380102157592773,20.827985763549805,0.0
1617,-2.944580078125,-3.825439453125,-4.9248046875,467.0,-494.0,354.0,-33.69095993041992,25.2762393951416,0.0,66.81706237792969,-68.01934051513672,44.702388763427734,-29.374345779418945,20.82112693786621,0.0
1622,-2.94580078125,-3.82421875,-4.918212890625,518.0,-464.0,326.0,-33.70570755004883,25.30655288696289,0.0,66.85660552978516,-68.05476379394531,44.72727584838867,-29.364850997924805,20.816783905029297,0.0
1627,-2.943603515625,-3.822998046875,-4.92919921875,487.0,-496.0,344.0,-33.65900802612305,25.261899948120117,0.0,66.89378356933594,-68.0926284790039,44.753536224365234,-29.35743522644043,20.809722900390625,0.0
1632,-2.943115234375,-3.83349609375,-4.9267578125,472.0,-486.0,338.0,-33.74235153198242,25.242246627807617,0.0,66.92981719970703,-68.12973022460938,44.77933883666992,-29.351768493652344,20.803319931030273,0.0
1637,-2.941162109375,-3.82568359375,-4.925048828125,464.0,-484.0,356.0,-33.699764251708984,25.24934196472168,0.0,66.96524047851562,-68.16667938232422,44.806514739990234,-29.3464412689209,20.797147750854492,0.0
1642,-2.94140625,-3.824462890625,-4.918701171875,472.0,-482.0,320.0,-33.715877532958984,25.2716121673584,0.0,67.00127410888672,-68.20347595214844,44.8309440612793,-29.340641021728516,20.791309356689453,0.0
1647,-2.941650390625,-3.832763671875,-4.917236328125,473.0,-508.0,326.0,-33.77848815917969,25.259456634521484,0.0,67.03738403320312,-68.24225616455078,44.855831146240234,-29.335222244262695,20.783443450927734,0.0
1652,-2.9462890625,-3.82275390625,-4.925537109375,491.0,-478.0,336.0,-33.66545486450195,25.292871475219727,0.0,67.07486724853516,-68.27874755859375,44.8814811706543,-29.327686309814453,20.778121948242188,0.0
1657,-2.94482421875,-3.822265625,-4.9189453125,472.0,-481.0,321.0,-33.69161605834961,25.301416397094727,0.0,67.11090087890625,-68.31546783447266,44.90598678588867,-29.32181167602539,20.772655487060547,0.0
1662,-2.940185546875,-3.8271484375,-4.924072265625,471.0,-483.0,331.0,-33.716064453125,25.241548538208008,0.0,67.14685821533203,-68.35234069824219,44.93125534057617,-29.316207885742188,20.766651153564453,0.0
1668,-2.93994140625,-3.825439453125,-4.92626953125,470.0,-496.0,316.0,-33.69612503051758,25.237279891967773,0.0,67.18991088867188,-68.39777374267578,44.960201263427734,-29.30352783203125,20.752227783203125,0.0
1673,-2.941650390625,-3.82275390625,-4.926513671875,495.0,-469.0,307.0,-33.67255401611328,25.255277633666992,0.0,67.22769927978516,-68.43357849121094,44.98363494873047,-29.295989990234375,20.747581481933594,0.0
1678,-2.945068359375,-3.82958984375,-4.927001953125,511.0,-484.0,331.0,-33.70978927612305,25.264724731445312,0.0,67.26670837402344,-68.47052764892578,45.00890350341797,-29.287534713745117,20.741880416870117,0.0
1683,-2.94287109375,-3.828857421875,-4.929443359375,471.0,-483.0,370.0,-33.70026779174805,25.24298667907715,0.0,67.30266571044922,-68.50740051269531,45.037147521972656,-29.28209114074707,20.73613166809082,0.0
1688,-2.944580078125,-3.823486328125,-4.929931640625,482.0,-481.0,345.0,-33.65718460083008,25.266122817993164,0.0,67.33946228027344,-68.54412078857422,45.06348419189453,-29.275541305541992,20.7307186126709,0.0
1693,-2.94580078125,-3.8310546875,-4.9189453125,483.0,-476.0,364.0,-33.75006103515625,25.289588928222656,0.0,67.37633514404297,-68.58045959472656,45.091270446777344,-29.26958465576172,20.725872039794922,0.0
1698,-2.942138671875,-3.827392578125,-4.921630859375,468.0,-508.0,371.0,-33.72279739379883,25.262531280517578,0.0,67.41206359863281,-68.6192398071289,45.119590759277344,-29.26460838317871,20.718433380126953,0.0
1703,-2.9453125,-3.826171875,-4.921630859375,470.0,-487.0,355.0,-33.706844329833984,25.289039611816406,0.0,67.44794464111328,-68.65641784667969,45.146690368652344,-29.25939178466797,20.712806701660156,0.0
1708,-2.947998046875,-3.828369140625,-4.9208984375,498.0,-516.0,319.0,-33.71856689453125,25.30647850036621,0.0,67.4859619140625,-68.69580841064453,45.171043395996094,-29.252155303955078,20.705127716064453,0.0
1713,-2.93994140625,-3.8330078125,-4.923828125,473.0,-499.0,337.0,-33.75809097290039,25.2276554107666,0.0,67.5220718383789,-68.73390197753906,45.19676971435547,-29.24712371826172,20.698238372802734,0.0
1718,-2.9423828125,-3.8251953125,-4.920166015625,480.0,-501.0,317.0,-33.71282958984375,25.27325439453125,0.0,67.5587158203125,-68.77214813232422,45.22096633911133,-29.24127197265625,20.691543579101562,0.0
1723,-2.9501953125,-3.823486328125,-4.9287109375,482.0,-499.0,332.0,-33.648746490478516,25.31170654296875,0.0,67.59551239013672,-68.81024169921875,45.24631118774414,-29.234859466552734,20.6852970123291,0.0
1728,-2.9423828125,-3.826416015625,-4.9248046875,469.0,-487.0,317.0,-33.70290756225586,25.257604598999023,0.0,67.63131713867188,-68.84741973876953,45.2705078125,-29.229835510253906,20.67962074279785,0.0
1733,-2.9443359375,-3.822021484375,-4.923828125,472.0,-479.0,324.0,-33.6717643737793,25.28458023071289,0.0,67.66735076904297,-68.88398742675781,45.29524230957031,-29.224395751953125,20.674762725830078,0.0
1738,-2.944091796875,-3.823486328125,-4.921142578125,460.0,-457.0,344.0,-33.69309616088867,25.287086486816406,0.0,67.70246887207031,-68.91887664794922,45.321502685546875,-29.220035552978516,20.671611785888672,0.0
1743,-2.943359375,-3.83154296875,-4.919921875,460.0,-494.0,334.0,-33.75535583496094,25.267446517944336,0.0,67.73758697509766,-68.95658874511719,45.34700012207031,-29.21611976623535,20.665531158447266,0.0
1748,-2.93994140625,-3.827880859375,-4.9228515625,476.0,-496.0,372.0,-33.726539611816406,25.24153709411621,0.0,67.77392578125,-68.99445343017578,45.375396728515625,-29.2108097076416,20.65915298461914,0.0
1753,-2.93994140625,-3.824462890625,-4.92626953125,500.0,-501.0,374.0,-33.68937301635742,25.239402770996094,0.0,67.81209564208984,-69.03269958496094,45.40394592285156,-29.20345115661621,20.65241241455078,0.0
1758,-2.9443359375,-3.825927734375,-4.9296875,484.0,-492.0,352.0,-33.675601959228516,25.259668350219727,0.0,67.84904479980469,-69.07025909423828,45.430816650390625,-29.197250366210938,20.646528244018555,0.0
1763,-2.944580078125,-3.826904296875,-4.92822265625,488.0,-492.0,338.0,-33.687564849853516,25.26348114013672,0.0,67.88629913330078,-69.10781860351562,45.45661926269531,-29.190860748291016,20.64069938659668,0.0
1768,-2.947998046875,-3.822021484375,-4.93017578125,486.0,-481.0,315.0,-33.63802719116211,25.294288635253906,0.0,67.92340087890625,-69.14453887939453,45.48066329956055,-29.18431854248047,20.635942459106445,0.0
1773,-2.94482421875,-3.823486328125,-4.92431640625,506.0,-500.0,318.0,-33.678810119628906,25.283693313598633,0.0,67.96202850341797,-69.18270874023438,45.50493621826172,-29.176572799682617,20.629695892333984,0.0
1778,-2.94189453125,-3.830078125,-4.92236328125,494.0,-499.0,330.0,-33.739036560058594,25.25279998779297,0.0,67.99974060058594,-69.2208023071289,45.530128479003906,-29.170188903808594,20.62334632873535,0.0
1783,-2.94091796875,-3.82470703125,-4.916259765625,502.0,-498.0,344.0,-33.728397369384766,25.27425193786621,0.0,68.0380630493164,-69.25881958007812,45.55638885498047,-29.16316032409668,20.617250442504883,0.0
1788,-2.947998046875,-3.82421875,-4.92822265625,484.0,-487.0,317.0,-33.660926818847656,25.294986724853516,0.0,68.07501220703125,-69.2959976196289,45.58058547973633,-29.157073974609375,20.61216163635254,0.0
1793,-2.943115234375,-3.8291015625,-4.919189453125,496.0,-485.0,346.0,-33.741966247558594,25.27298355102539,0.0,68.11287689208984,-69.33302307128906,45.606998443603516,-29.15066146850586,20.607097625732422,0.0
1798,-2.944580078125,-3.826171875,-4.932373046875,493.0,-506.0,340.0,-33.666099548339844,25.253456115722656,0.0,68.1505126953125,-69.37165069580078,45.63295364379883,-29.143993377685547,20.60033416748047,0.0
1804,-2.94482421875,-3.822021484375,-4.924560546875,486.0,-492.0,350.0,-33.6677131652832,25.286195755004883,0.0,68.19503021240234,-69.41671752929688,45.665016174316406,-29.1306209564209,20.587522506713867,0.0
1809,-2.943115234375,-3.825439453125,-4.92333984375,476.0,-505.0,347.0,-33.70022201538086,25.269336700439453,0.0,68.23136901855469,-69.45526885986328,45.691505432128906,-29.12567901611328,20.581146240234375,0.0
1814,-2.9482421875,-3.830322265625,-4.9248046875,480.0,-497.0,354.0,-33.71603012084961,25.29311180114746,0.0,68.26801300048828,-69.49320983886719,45.718528747558594,-29.120563507080078,20.575571060180664,0.0
1819,-2.946044921875,-3.830322265625,-4.927734375,484.0,-490.0,346.0,-33.70964431762695,25.268415451049805,0.0,68.30496215820312,-69.5306167602539,45.74494171142578,-29.11512565612793,20.570384979248047,0.0
1824,-2.9462890625,-3.826171875,-4.923828125,469.0,-511.0,350.0,-33.69584274291992,25.290220260620117,0.0,68.34076690673828,-69.56962585449219,45.77165985107422,-29.110759735107422,20.56378173828125,0.0
1829,-2.94287109375,-3.831298828125,-4.916015625,471.0,-484.0,361.0,-33.77030944824219,25.27524185180664,0.0,68.37672424316406,-69.60657501220703,45.799217224121094,-29.106767654418945,20.55915641784668,0.0
1834,-2.943115234375,-3.823486328125,-4.926025390625,496.0,-495.0,335.0,-33.676090240478516,25.266061782836914,0.0,68.41458892822266,-69.64436340332031,45.824790954589844,-29.100255966186523,20.55365562438965,0.0
1839,-2.94873046875,-3.826904296875,-4.926513671875,461.0,-494.0,308.0,-33.68450927734375,25.29943084716797,0.0,68.44978332519531,-69.68207550048828,45.84830093383789,-29.09648895263672,20.548484802246094,0.0
1844,-2.941162109375,-3.827392578125,-4.919189453125,477.0,-481.0,347.0,-33.73478317260742,25.262025833129883,0.0,68.48619842529297,-69.71879577636719,45.87479019165039,-29.091867446899414,20.544071197509766,0.0
1849,-2.942138671875,-3.8291015625,-4.924560546875,484.0,-492.0,334.0,-33.72300720214844,25.250612258911133,0.0,68.52314758300781,-69.75635528564453,45.90028762817383,-29.08665657043457,20.53876495361328,0.0
1854,-2.94384765625,-3.825439453125,-4.923583984375,477.0,-478.0,336.0,-33.6975212097168,25.27415657043457,0.0,68.55956268310547,-69.7928466796875,45.92593765258789,-29.081829071044922,20.534706115722656,0.0
1859,-2.94384765625,-3.82666015625,-4.92578125,486.0,-483.0,329.0,-33.697265625,25.26534652709961,0.0,68.59666442871094,-69.82971954345703,45.951053619384766,-29.076339721679688,20.530227661132812,0.0
1864,-2.942138671875,-3.826904296875,-4.925537109375,466.0,-499.0,351.0,-33.70396041870117,25.25265884399414,0.0,68.63224029541016,-69.86781311035156,45.977848052978516,-29.07244110107422,20.524471282958984,0.0
1869,-2.944580078125,-3.823974609375,-4.9287109375,503.0,-498.0,310.0,-33.66538619995117,25.26848030090332,0.0,68.67063903808594,-69.90583038330078,46.00151062011719,-29.065492630004883,20.5189266204834,0.0
1874,-2.947509765625,-3.830810546875,-4.92236328125,465.0,-491.0,340.0,-33.730796813964844,25.293386459350586,0.0,68.70613861083984,-69.94331359863281,46.0274658203125,-29.061906814575195,20.514110565185547,0.0
1879,-2.9443359375,-3.829833984375,-4.925537109375,484.0,-512.0,355.0,-33.7190055847168,25.262792587280273,0.0,68.74308776855469,-69.9823989868164,46.0545654296875,-29.05681610107422,20.507518768310547,0.0
1884,-2.943115234375,-3.8271484375,-4.922119140625,489.0,-499.0,326.0,-33.71686553955078,25.26903533935547,0.0,68.7804183959961,-70.02049255371094,46.07945251464844,-29.05135726928711,20.501989364624023,0.0
1889,-2.946044921875,-3.824951171875,-4.91748046875,468.0,-500.0,327.0,-33.713096618652344,25.30884552001953,0.0,68.81614685058594,-70.05866241455078,46.10441589355469,-29.04749298095703,20.49668312072754,0.0
1894,-2.943115234375,-3.830810546875,-4.920654296875,477.0,-493.0,360.0,-33.74797439575195,25.265159606933594,0.0,68.8525619506836,-70.09629821777344,46.13189697265625,-29.043201446533203,20.49163818359375,0.0
1899,-2.943359375,-3.821533203125,-4.92138671875,470.0,-484.0,340.0,-33.680355072021484,25.2851505279541,0.0,68.88844299316406,-70.13324737548828,46.15785217285156,-29.039003372192383,20.487436294555664,0.0
1904,-2.945556640625,-3.824951171875,-4.92822265625,473.0,-502.0,318.0,-33.67176055908203,25.275062561035156,0.0,68.92455291748047,-70.17156982421875,46.182125091552734,-29.03453826904297,20.481822967529297,0.0
1909,-2.941162109375,-3.827880859375,-4.92236328125,485.0,-496.0,354.0,-33.7255859375,25.252077102661133,0.0,68.96157836914062,-70.20943450927734,46.20914840698242,-29.02954864501953,20.476537704467773,0.0
1914,-2.94189453125,-3.822021484375,-4.927001953125,468.0,-496.0,325.0,-33.66497802734375,25.257335662841797,0.0,68.99730682373047,-70.24729919433594,46.23395919799805,-29.02546501159668,20.471315383911133,0.0
1919,-2.944091796875,-3.8212890625,-4.921142578125,476.0,-490.0,313.0,-33.67789840698242,25.291873931884766,0.0,69.03364562988281,-70.28470611572266,46.257850646972656,-29.02088165283203,20.466808319091797,0.0
1924,-2.944091796875,-3.82958984375,-4.923828125,494.0,-472.0,345.0,-33.72465896606445,25.266271591186523,0.0,69.07135772705078,-70.32073974609375,46.28418731689453,-29.01527214050293,20.463516235351562,0.0
1929,-2.940673828125,-3.830810546875,-4.92919921875,475.0,-508.0,341.0,-33.71990966796875,25.222925186157227,0.0,69.10762023925781,-70.3595199584961,46.310218811035156,-29.0111026763916,20.45721435546875,0.0
1934,-2.94140625,-3.82666015625,-4.91552734375,484.0,-499.0,343.0,-33.743656158447266,25.27571678161621,0.0,69.14456939697266,-70.39761352539062,46.336402893066406,-29.00642967224121,20.45198631286621,0.0
1940,-2.945556640625,-3.822509765625,-4.9189453125,474.0,-482.0,355.0,-33.691566467285156,25.3063907623291,0.0,69.18798828125,-70.44176483154297,46.36892318725586,-28.99509048461914,20.44106674194336,0.0
1945,-2.938720703125,-3.82861328125,-4.923095703125,462.0,-494.0,346.0,-33.7335205078125,25.230083465576172,0.0,69.22325897216797,-70.47947692871094,46.39533615112305,-28.992202758789062,20.436094284057617,0.0
1950,-2.945556640625,-3.82470703125,-4.920654296875,487.0,-499.0,356.0,-33.70000076293945,25.29680633544922,0.0,69.26043701171875,-70.51757049560547,46.42251205444336,-28.987201690673828,20.43122100830078,0.0
1955,-2.9443359375,-3.825927734375,-4.9267578125,476.0,-504.0,306.0,-33.68718719482422,25.26786994934082,0.0,69.2967758178711,-70.55604553222656,46.44586944580078,-28.982975006103516,20.425796508789062,0.0
1960,-2.943359375,-3.825439453125,-4.925048828125,486.0,-518.0,344.0,-33.6928825378418,25.26638412475586,0.0,69.33387756347656,-70.59558868408203,46.472129821777344,-28.978046417236328,20.419328689575195,0.0
1965,-2.939697265625,-3.828125,-4.923828125,494.0,-487.0,318.0,-33.72493362426758,25.236438751220703,0.0,69.37158966064453,-70.63276672363281,46.496402740478516,-28.972753524780273,20.415042877197266,0.0
1970,-2.9404296875,-3.82373046875,-4.929443359375,468.0,-467.0,311.0,-33.670597076416016,25.235780715942383,0.0,69.40731811523438,-70.66841888427734,46.5201416015625,-28.969093322753906,20.412290573120117,0.0
1975,-2.9423828125,-3.831298828125,-4.91845703125,498.0,-499.0,331.0,-33.76179122924805,25.264739990234375,0.0,69.4453353881836,-70.70651245117188,46.54541015625,-28.963790893554688,20.407318115234375,0.0
1980,-2.94384765625,-3.830810546875,-4.922607421875,503.0,-492.0,345.0,-33.738502502441406,25.26519775390625,0.0,69.48373413085938,-70.74407196044922,46.571746826171875,-28.957979202270508,20.402904510498047,0.0
1985,-2.943115234375,-3.823486328125,-4.930908203125,475.0,-507.0,342.0,-33.65678405761719,25.25238609313965,0.0,69.5199966430664,-70.78277587890625,46.59785461425781,-28.95376968383789,20.397289276123047,0.0
1990,-2.941650390625,-3.828857421875,-4.923095703125,480.0,-494.0,356.0,-33.72827911376953,25.25157356262207,0.0,69.556640625,-70.82048797607422,46.625030517578125,-28.949684143066406,20.392683029174805,0.0
1995,-2.9404296875,-3.828369140625,-4.92236328125,493.0,-470.0,368.0,-33.73069381713867,25.24551010131836,0.0,69.59427642822266,-70.85636901855469,46.65312194824219,-28.94464874267578,20.38987922668457,0.0
2000,-2.948486328125,-3.823486328125,-4.930908203125,481.0,-475.0,353.0,-33.644107818603516,25.29271697998047,0.0,69.63099670410156,-70.89263153076172,46.68006896972656,-28.939964294433594,20.387027740478516,0.0
2005,-2.945068359375,-3.8251953125,-4.925048828125,482.0,-473.0,336.0,-33.68715286254883,25.279754638671875,0.0,69.66779327392578,-70.92874145507812,46.705718994140625,-28.935518264770508,20.38425064086914,0.0
2010,-2.939697265625,-3.827392578125,-4.92626953125,471.0,-501.0,351.0,-33.710201263427734,25.231201171875,0.0,69.70375061035156,-70.96698760986328,46.732513427734375,-28.932086944580078,20.379032135009766,0.0
2015,-2.94287109375,-3.821044921875,-4.928466796875,483.0,-485.0,324.0,-33.65012741088867,25.262691497802734,0.0,69.7406234741211,-71.00401306152344,46.75724792480469,-28.92735481262207,20.375267028808594,0.0
2020,-2.946533203125,-3.8212890625,-4.923828125,497.0,-467.0,350.0,-33.6614990234375,25.302688598632812,0.0,69.778564453125,-71.03966522216797,46.783966064453125,-28.921663284301758,20.37315559387207,0.0
2025,-2.9404296875,-3.828369140625,-4.9267578125,487.0,-480.0,321.0,-33.713287353515625,25.233217239379883,0.0,69.81574249267578,-71.07630920410156,46.8084716796875,-28.917110443115234,20.36959457397461,0.0
2030,-2.94384765625,-3.822998046875,-4.923095703125,477.0,-472.0,340.0,-33.68257141113281,25.280839920043945,0.0,69.85215759277344,-71.11234283447266,46.83442687988281,-28.91313362121582,20.366981506347656,0.0
2035,-2.945068359375,-3.822998046875,-4.925048828125,463.0,-499.0,319.0,-33.671958923339844,25.284536361694336,0.0,69.88750457763672,-71.15043640136719,46.85877990722656,-28.910165786743164,20.362354278564453,0.0
2040,-2.94189453125,-3.825927734375,-4.926025390625,490.0,-496.0,324.0,-33.69585418701172,25.2515811920166,0.0,69.92491149902344,-71.18830108642578,46.883514404296875,-28.905323028564453,20.357757568359375,0.0
2045,-2.943603515625,-3.829833984375,-4.9208984375,485.0,-492.0,338.0,-33.73910140991211,25.27027130126953,0.0,69.9619369506836,-71.22586059570312,46.90931701660156,-28.90117835998535,20.353612899780273,0.0
2050,-2.94384765625,-3.826416015625,-4.927001953125,489.0,-489.0,326.0,-33.69075012207031,25.26245880126953,0.0,69.999267578125,-71.26319122314453,46.9342041015625,-28.896425247192383,20.34966468811035,0.0
2055,-2.946044921875,-3.82763671875,-4.922607421875,489.0,-480.0,341.0,-33.71137237548828,25.288616180419922,0.0,70.0365982055664,-71.29983520507812,46.960235595703125,-28.891836166381836,20.346593856811523,0.0
2060,-2.943115234375,-3.8271484375,-4.919921875,488.0,-506.0,360.0,-33.72556686401367,25.275188446044922,0.0,70.0738525390625,-71.33846282958984,46.98771667480469,-28.88744354248047,20.341476440429688,0.0
2065,-2.940185546875,-3.82421875,-4.919189453125,496.0,-489.0,347.0,-33.715145111083984,25.2615966796875,0.0,70.1117172241211,-71.37579345703125,47.01420593261719,-28.882396697998047,20.337583541870117,0.0
2070,-2.9462890625,-3.826904296875,-4.921875,470.0,-467.0,368.0,-33.7086296081543,25.294097900390625,0.0,70.14759826660156,-71.41144561767578,47.04229736328125,-28.879304885864258,20.33559799194336,0.0
2076,-2.942138671875,-3.8271484375,-4.92431640625,491.0,-490.0,333.0,-33.710479736328125,25.255544662475586,0.0,70.19257354736328,-71.45632934570312,47.07279968261719,-28.86729621887207,20.32427978515625,0.0
2081,-2.948974609375,-3.82373046875,-4.91943359375,490.0,-504.0,336.0,-33.689979553222656,25.32804298400879,0.0,70.22998046875,-71.49480438232422,47.09844970703125,-28.862743377685547,20.31989097595215,0.0
2086,-2.947021484375,-3.82568359375,-4.926513671875,462.0,-496.0,331.0,-33.68011474609375,25.289257049560547,0.0,70.26525115966797,-71.53266906738281,47.12371826171875,-28.860271453857422,20.315868377685547,0.0
2091,-2.9443359375,-3.825439453125,-4.9287109375,482.0,-503.0,311.0,-33.67608642578125,25.263463973999023,0.0,70.30204772949219,-71.5710678100586,47.147457122802734,-28.856264114379883,20.311159133911133,0.0
2096,-2.9423828125,-3.82666015625,-4.9248046875,474.0,-496.0,314.0,-33.704593658447266,25.2570743560791,0.0,70.3382339477539,-71.60893249511719,47.171424865722656,-28.853076934814453,20.306962966918945,0.0
2101,-2.94287109375,-3.8271484375,-4.9248046875,499.0,-474.0,344.0,-33.70681381225586,25.259681701660156,0.0,70.37632751464844,-71.6451187133789,47.19768524169922,-28.8480224609375,20.304473876953125,0.0
2106,-2.942626953125,-3.826416015625,-4.92578125,502.0,-493.0,326.0,-33.698463439941406,25.25670623779297,0.0,70.4146499633789,-71.68275451660156,47.222572326660156,-28.84271240234375,20.3005313873291,0.0
2111,-2.939453125,-3.830322265625,-4.921875,466.0,-488.0,383.0,-33.748435974121094,25.23528480529785,0.0,70.45022583007812,-71.72000885009766,47.251808166503906,-28.840497970581055,20.296842575073242,0.0
2116,-2.94287109375,-3.825927734375,-4.921630859375,474.0,-505.0,354.0,-33.7109375,25.271224975585938,0.0,70.48641204833984,-71.75856018066406,47.278831481933594,-28.837430953979492,20.29212760925293,0.0
2121,-2.947021484375,-3.823974609375,-4.931884765625,502.0,-502.0,346.0,-33.6470832824707,25.277923583984375,0.0,70.52473449707031,-71.79688262939453,47.30524444580078,-28.831823348999023,20.287708282470703,0.0
2126,-2.94140625,-3.8291015625,-4.925048828125,486.0,-506.0,368.0,-33.722808837890625,25.243743896484375,0.0,70.56183624267578,-71.83551025390625,47.333335876464844,-28.827970504760742,20.282779693603516,0.0
2131,-2.9453125,-3.823974609375,-4.9287109375,492.0,-488.0,340.0,-33.66365432739258,25.27398109436035,0.0,70.59939575195312,-71.87276458740234,47.359291076660156,-28.823284149169922,20.27944564819336,0.0
2136,-2.94775390625,-3.822265625,-4.926025390625,476.0,-495.0,315.0,-33.65668487548828,25.303565979003906,0.0,70.63573455810547,-71.91055297851562,47.38333511352539,-28.81978988647461,20.275794982910156,0.0
2141,-2.9423828125,-3.827392578125,-4.91796875,465.0,-487.0,315.0,-33.73672866821289,25.274621963500977,0.0,70.67123413085938,-71.9477310180664,47.407379150390625,-28.817686080932617,20.272573471069336,0.0
2146,-2.941162109375,-3.826171875,-4.9208984375,487.0,-496.0,314.0,-33.719573974609375,25.259899139404297,0.0,70.70841217041016,-71.985595703125,47.43134689331055,-28.813804626464844,20.268587112426758,0.0
2151,-2.94287109375,-3.8212890625,-4.917724609375,488.0,-475.0,316.0,-33.69431686401367,25.292285919189453,0.0,70.74566650390625,-72.02185821533203,47.455467224121094,-28.8096981048584,20.26643180847168,0.0
2156,-2.934326171875,-3.824951171875,-4.92529296875,495.0,-474.0,325.0,-33.70988464355469,25.198850631713867,0.0,70.78345489501953,-72.05804443359375,47.48027801513672,-28.805187225341797,20.263731002807617,0.0
2161,-2.947021484375,-3.825927734375,-4.919677734375,462.0,-498.0,331.0,-33.70883560180664,25.307889938354492,0.0,70.8187255859375,-72.09606170654297,47.50554656982422,-28.80319595336914,20.25995635986328,0.0
2166,-2.94189453125,-3.822509765625,-4.922607421875,490.0,-491.0,361.0,-33.68574523925781,25.26858901977539,0.0,70.85613250732422,-72.133544921875,47.533103942871094,-28.798933029174805,20.256465911865234,0.0
2171,-2.943603515625,-3.827392578125,-4.919189453125,494.0,-502.0,345.0,-33.72899627685547,25.280378341674805,0.0,70.89384460449219,-72.17186737060547,47.55944061279297,-28.794679641723633,20.252239227294922,0.0
2176,-2.94580078125,-3.826171875,-4.9208984375,486.0,-495.0,362.0,-33.708587646484375,25.294763565063477,0.0,70.93094635009766,-72.20965576171875,47.587074279785156,-28.790918350219727,20.248661041259766,0.0
2181,-2.94482421875,-3.824951171875,-4.92138671875,459.0,-483.0,354.0,-33.70052719116211,25.288715362548828,0.0,70.96598815917969,-72.24652862548828,47.614097595214844,-28.789169311523438,20.245969772338867,0.0
2186,-2.944580078125,-3.82666015625,-4.925048828125,489.0,-490.0,344.0,-33.69843292236328,25.272899627685547,0.0,71.0033187866211,-72.283935546875,47.640357971191406,-28.785137176513672,20.24265480041504,0.0
2191,-2.941650390625,-3.831298828125,-4.92138671875,483.0,-509.0,333.0,-33.751914978027344,25.251039505004883,0.0,71.04019165039062,-72.32279205322266,47.66577911376953,-28.78194236755371,20.237768173217773,0.0
2196,-2.945068359375,-3.82177734375,-4.92578125,499.0,-500.0,312.0,-33.660621643066406,25.285139083862305,0.0,71.07828521728516,-72.3609619140625,47.68959426879883,-28.776935577392578,20.23381996154785,0.0
2201,-2.945556640625,-3.8212890625,-4.91943359375,481.0,-497.0,318.0,-33.681190490722656,25.307682037353516,0.0,71.11500549316406,-72.3989028930664,47.7138671875,-28.773460388183594,20.23027229309082,0.0
2206,-2.940185546875,-3.826171875,-4.9208984375,467.0,-494.0,323.0,-33.721885681152344,25.2525577545166,0.0,71.1506576538086,-72.43661499023438,47.738525390625,-28.771339416503906,20.226598739624023,0.0
2212,-2.94140625,-3.82763671875,-4.92041015625,469.0,-507.0,332.0,-33.731056213378906,25.259912490844727,0.0,71.19361877441406,-72.4830551147461,47.76893615722656,-28.762121200561523,20.214420318603516,0.0
2217,-2.9443359375,-3.822998046875,-4.923095703125,440.0,-501.0,333.0,-33.68141555786133,25.284509658813477,0.0,71.22720336914062,-72.52130126953125,47.79435729980469,-28.761932373046875,20.21062469482422,0.0
2222,-2.940185546875,-3.82958984375,-4.92529296875,493.0,-489.0,366.0,-33.72809982299805,25.23282814025879,0.0,71.26483917236328,-72.55863189697266,47.822296142578125,-28.75803565979004,20.207408905029297,0.0
2227,-2.942626953125,-3.828369140625,-4.9296875,483.0,-479.0,325.0,-33.69650650024414,25.241531372070312,0.0,71.30171203613281,-72.59519958496094,47.84710693359375,-28.754703521728516,20.20502471923828,0.0
2232,-2.945556640625,-3.826171875,-4.924072265625,472.0,-492.0,360.0,-33.69660949707031,25.284034729003906,0.0,71.3377456665039,-72.63275909423828,47.87458801269531,-28.75222396850586,20.20195198059082,0.0
2237,-2.94482421875,-3.827392578125,-4.92236328125,482.0,-503.0,337.0,-33.71354293823242,25.28066062927246,0.0,71.37454223632812,-72.67115783691406,47.90031433105469,-28.749109268188477,20.198036193847656,0.0
2242,-2.94287109375,-3.827880859375,-4.92041015625,476.0,-504.0,350.0,-33.72927474975586,25.270389556884766,0.0,71.41088104248047,-72.70963287353516,47.927032470703125,-28.746570587158203,20.19399642944336,0.0
2247,-2.94384765625,-3.828369140625,-4.923828125,500.0,-487.0,334.0,-33.71680450439453,25.2670955657959,0.0,71.44905090332031,-72.74681091308594,47.95252990722656,-28.74213981628418,20.191242218017578,0.0
2252,-2.942626953125,-3.82666015625,-4.92333984375,482.0,-489.0,330.0,-33.709815979003906,25.263010025024414,0.0,71.48584747314453,-72.78414154052734,47.97772216796875,-28.739049911499023,20.188322067260742,0.0
2257,-2.947021484375,-3.82861328125,-4.923583984375,497.0,-466.0,341.0,-33.711944580078125,25.291088104248047,0.0,71.52378845214844,-72.81971740722656,48.003753662109375,-28.734851837158203,20.187349319458008,0.0
2262,-2.939697265625,-3.82373046875,-4.92822265625,464.0,-457.0,335.0,-33.677154541015625,25.233692169189453,0.0,71.55921173095703,-72.85460662841797,48.029327392578125,-28.73294448852539,20.18667221069336,0.0
2267,-2.946533203125,-3.82275390625,-4.920654296875,486.0,-487.0,346.0,-33.684181213378906,25.30840301513672,0.0,71.5963134765625,-72.89178466796875,48.05574035644531,-28.729421615600586,20.184221267700195,0.0
2272,-2.943359375,-3.827392578125,-4.923828125,492.0,-510.0,340.0,-33.711212158203125,25.265552520751953,0.0,71.63387298583984,-72.93071746826172,48.081695556640625,-28.725645065307617,20.179750442504883,0.0
2277,-2.940673828125,-3.829345703125,-4.92578125,476.0,-494.0,346.0,-33.72332763671875,25.23566246032715,0.0,71.67021179199219,-72.96842956542969,48.10810852050781,-28.723182678222656,20.176315307617188,0.0
2282,-2.946044921875,-3.8212890625,-4.92626953125,462.0,-513.0,349.0,-33.65300369262695,25.29216957092285,0.0,71.70548248291016,-73.0075912475586,48.13475036621094,-28.7213191986084,20.171836853027344,0.0
2287,-2.94287109375,-3.8271484375,-4.91943359375,470.0,-490.0,350.0,-33.72808074951172,25.274721145629883,0.0,71.74136352539062,-73.04499816894531,48.161468505859375,-28.719362258911133,20.169008255004883,0.0
2292,-2.938232421875,-3.826416015625,-4.926025390625,492.0,-495.0,347.0,-33.707881927490234,25.22299575805664,0.0,71.77892303466797,-73.0827865600586,48.187957763671875,-28.715608596801758,20.16546630859375,0.0
2297,-2.943115234375,-3.823486328125,-4.918701171875,496.0,-501.0,339.0,-33.705074310302734,25.286590576171875,0.0,71.81678771972656,-73.12103271484375,48.213836669921875,-28.711551666259766,20.161916732788086,0.0
2302,-2.94775390625,-3.823974609375,-4.92041015625,498.0,-488.0,321.0,-33.690696716308594,25.315597534179688,0.0,71.85480499267578,-73.15828704833984,48.23834228515625,-28.70726776123047,20.159564971923828,0.0
2307,-2.944580078125,-3.8271484375,-4.919921875,493.0,-482.0,330.0,-33.72209548950195,25.286197662353516,0.0,71.89244079589844,-73.19508361816406,48.26353454589844,-28.703598022460938,20.157480239868164,0.0
2312,-2.94580078125,-3.8232421875,-4.925048828125,465.0,-487.0,351.0,-33.671913146972656,25.289508819580078,0.0,71.92794036865234,-73.23226165771484,48.29032897949219,-28.70173454284668,20.155048370361328,0.0
2317,-2.94677734375,-3.8251953125,-4.92431640625,478.0,-487.0,326.0,-33.686004638671875,25.294645309448242,0.0,71.96443176269531,-73.26943969726562,48.315216064453125,-28.698986053466797,20.15266227722168,0.0
2322,-2.94482421875,-3.83056640625,-4.92041015625,470.0,-516.0,317.0,-33.74320602416992,25.27921485900879,0.0,72.00031280517578,-73.30883026123047,48.339412689208984,-28.697242736816406,20.147985458374023,0.0
2327,-2.94384765625,-3.82470703125,-4.921875,480.0,-494.0,330.0,-33.69921875,25.280540466308594,0.0,72.03695678710938,-73.34654235839844,48.36460494995117,-28.6944522857666,20.145009994506836,0.0
2332,-2.943603515625,-3.8251953125,-4.924072265625,464.0,-499.0,314.0,-33.694480895996094,25.271484375,0.0,72.07238006591797,-73.38463592529297,48.388572692871094,-28.69285774230957,20.141611099243164,0.0
2337,-2.943115234375,-3.830322265625,-4.9248046875,493.0,-482.0,335.0,-33.72816467285156,25.254610061645508,0.0,72.11001586914062,-73.42143249511719,48.414146423339844,-28.689294815063477,20.139404296875,0.0
2342,-2.94189453125,-3.8271484375,-4.92333984375,492.0,-495.0,348.0,-33.71492385864258,25.25644302368164,0.0,72.14757537841797,-73.45922088623047,48.440711975097656,-28.68573760986328,20.136234283447266,0.0
2348,-2.94140625,-3.821044921875,-4.9248046875,481.0,-495.0,339.0,-33.66807174682617,25.261947631835938,0.0,72.19163513183594,-73.50456237792969,48.471763610839844,-28.675521850585938,20.12571144104004,0.0
2353,-2.944091796875,-3.827880859375,-4.924560546875,499.0,-490.0,343.0,-33.70995330810547,25.267942428588867,0.0,72.22972869873047,-73.5419692993164,48.497947692871094,-28.671581268310547,20.123178482055664,0.0
2358,-2.9404296875,-3.825927734375,-4.92431640625,482.0,-499.0,339.0,-33.70608139038086,25.2453556060791,0.0,72.26652526855469,-73.58006286621094,48.523826599121094,-28.668922424316406,20.119821548461914,0.0
2363,-2.940673828125,-3.82763671875,-4.9287109375,491.0,-483.0,337.0,-33.699920654296875,25.231182098388672,0.0,72.30400848388672,-73.61693572998047,48.54955291748047,-28.665552139282227,20.117599487304688,0.0
2368,-2.944091796875,-3.8203125,-4.9208984375,475.0,-501.0,339.0,-33.6721076965332,25.29468536376953,0.0,72.34027099609375,-73.65518188476562,48.57543182373047,-28.663227081298828,20.114450454711914,0.0
2373,-2.943115234375,-3.83544921875,-4.92236328125,497.0,-474.0,343.0,-33.77323913574219,25.25027847290039,0.0,72.37821197509766,-73.69136810302734,48.60161590576172,-28.659923553466797,20.113065719604492,0.0
2378,-2.94189453125,-3.822509765625,-4.922607421875,463.0,-478.0,367.0,-33.68574523925781,25.26858901977539,0.0,72.41355895996094,-73.72785949707031,48.62963104248047,-28.658626556396484,20.111501693725586,0.0
2383,-2.94287109375,-3.82373046875,-4.925537109375,482.0,-503.0,338.0,-33.6802864074707,25.265064239501953,0.0,72.45035552978516,-73.7662582397461,48.655433654785156,-28.655853271484375,20.10802459716797,0.0
2388,-2.94287109375,-3.828125,-4.92236328125,489.0,-486.0,335.0,-33.723228454589844,25.26439094543457,0.0,72.48768615722656,-73.80335998535156,48.681007385253906,-28.652851104736328,20.10584831237793,0.0
2393,-2.941650390625,-3.83056640625,-4.922607421875,460.0,-491.0,299.0,-33.74201965332031,25.24921989440918,0.0,72.5228042602539,-73.8408432006836,48.70383071899414,-28.652191162109375,20.103200912475586,0.0
2398,-2.94091796875,-3.822509765625,-4.923583984375,472.0,-493.0,353.0,-33.68418884277344,25.25851058959961,0.0,72.558837890625,-73.87847900390625,48.730777740478516,-28.650230407714844,20.10047721862793,0.0
2403,-2.9453125,-3.82470703125,-4.92626953125,463.0,-476.0,310.0,-33.678367614746094,25.27923011779785,0.0,72.59418487548828,-73.9148178100586,48.75444030761719,-28.648921966552734,20.09919548034668,0.0
2408,-2.94580078125,-3.826416015625,-4.922607421875,458.0,-472.0,349.0,-33.703514099121094,25.28944206237793,0.0,72.629150390625,-73.95085144042969,48.78108215332031,-28.648164749145508,20.098289489746094,0.0
2413,-2.94775390625,-3.823974609375,-4.920166015625,504.0,-520.0,346.0,-33.6916618347168,25.316282272338867,0.0,72.6676254272461,-73.99054718017578,48.8074951171875,-28.64383888244629,20.093923568725586,0.0
2418,-2.941650390625,-3.828125,-4.931884765625,463.0,-504.0,350.0,-33.68843078613281,25.22858428955078,0.0,72.70297241210938,-74.02902221679688,48.83421325683594,-28.64262580871582,20.090206146240234,0.0
2423,-2.944091796875,-3.83154296875,-4.91845703125,493.0,-499.0,341.0,-33.759422302246094,25.277050018310547,0.0,72.74060821533203,-74.0671157836914,48.86024475097656,-28.639616012573242,20.08721351623535,0.0
2428,-2.9423828125,-3.829833984375,-4.92138671875,483.0,-496.0,356.0,-33.74005889892578,25.259733200073242,0.0,72.77748107910156,-74.10498046875,48.887420654296875,-28.637248992919922,20.084346771240234,0.0
2433,-2.9462890625,-3.82373046875,-4.928955078125,497.0,-504.0,340.0,-33.658695220947266,25.281164169311523,0.0,72.81542205810547,-74.1434555053711,48.91337585449219,-28.633285522460938,20.081031799316406,0.0
2438,-2.941162109375,-3.8232421875,-4.923828125,479.0,-493.0,331.0,-33.68770980834961,25.25806999206543,0.0,72.85198974609375,-74.18109130859375,48.93864440917969,-28.630903244018555,20.078413009643555,0.0
2443,-2.943359375,-3.830322265625,-4.926025390625,470.0,-501.0,331.0,-33.722755432128906,25.25303077697754,0.0,72.88787078857422,-74.2193374633789,48.96391296386719,-28.629451751708984,20.075166702270508,0.0
2448,-2.942138671875,-3.822509765625,-4.923583984375,485.0,-489.0,315.0,-33.68130111694336,25.267688751220703,0.0,72.92489624023438,-74.25666809082031,48.98795700073242,-28.626588821411133,20.07294464111328,0.0
2453,-2.943359375,-3.826904296875,-4.92626953125,462.0,-505.0,317.0,-33.69817352294922,25.25977897644043,0.0,72.96016693115234,-74.29521942138672,49.01215362548828,-28.625598907470703,20.069467544555664,0.0
2458,-2.9384765625,-3.826171875,-4.92529296875,486.0,-492.0,312.0,-33.708518981933594,25.2274112701416,0.0,72.99726867675781,-74.33277893066406,49.03596878051758,-28.622859954833984,20.066776275634766,0.0
2463,-2.94091796875,-3.824951171875,-4.92626953125,477.0,-504.0,313.0,-33.69044494628906,25.24567985534668,0.0,73.03368377685547,-74.37125396728516,49.05986022949219,-28.620697021484375,20.063312530517578,0.0
2468,-2.939453125,-3.8271484375,-4.9228515625,481.0,-501.0,333.0,-33.722633361816406,25.239458084106445,0.0,73.07040405273438,-74.40950012207031,49.08528137207031,-28.618453979492188,20.0600528717041,0.0
2473,-2.94140625,-3.826171875,-4.92724609375,496.0,-510.0,367.0,-33.69386291503906,25.24396324157715,0.0,73.10826873779297,-74.44843292236328,49.11329650878906,-28.614892959594727,20.0561580657959,0.0
2478,-2.9453125,-3.823974609375,-4.926025390625,493.0,-478.0,371.0,-33.67427444458008,25.28150749206543,0.0,73.14590454101562,-74.48492431640625,49.14161682128906,-28.611446380615234,20.054962158203125,0.0
2484,-2.94873046875,-3.824951171875,-4.926513671875,475.0,-515.0,354.0,-33.67101287841797,25.303682327270508,0.0,73.18216705322266,-74.52423858642578,49.16864013671875,-28.609363555908203,20.051115036010742,0.0
2489,-2.94091796875,-3.830810546875,-4.9140625,480.0,-483.0,351.0,-33.77931594848633,25.267091751098633,0.0,73.22613525390625,-74.5684814453125,49.2007942199707,-28.6004581451416,20.042245864868164,0.0
2494,-2.943603515625,-3.826416015625,-4.920654296875,479.0,-517.0,327.0,-33.71644592285156,25.27840232849121,0.0,73.26270294189453,-74.60794830322266,49.22575759887695,-28.59853744506836,20.038253784179688,0.0
2499,-2.946533203125,-3.822265625,-4.927734375,482.0,-496.0,314.0,-33.65281677246094,25.28960418701172,0.0,73.29949951171875,-74.64581298828125,49.249725341796875,-28.595970153808594,20.03594970703125,0.0
2504,-2.946044921875,-3.82666015625,-4.924560546875,485.0,-478.0,312.0,-33.696895599365234,25.28527069091797,0.0,73.3365249633789,-74.68230438232422,49.27354049682617,-28.593482971191406,20.034990310668945,0.0
2509,-2.94287109375,-3.824462890625,-4.9267578125,498.0,-512.0,305.0,-33.680519104003906,25.260051727294922,0.0,73.37454223632812,-74.72138977050781,49.29682159423828,-28.58991241455078,20.031286239624023,0.0
2514,-2.947021484375,-3.821533203125,-4.923095703125,491.0,-497.0,336.0,-33.6649284362793,25.307880401611328,0.0,73.41202545166016,-74.75933074951172,49.322471618652344,-28.5867862701416,20.02906036376953,0.0
2519,-2.941650390625,-3.8271484375,-4.926513671875,480.0,-483.0,321.0,-33.70293426513672,25.245725631713867,0.0,73.44866943359375,-74.79620361328125,49.34697723388672,-28.58476448059082,20.02748680114746,0.0
2524,-2.9423828125,-3.828857421875,-4.9248046875,482.0,-473.0,338.0,-33.71977615356445,25.252294540405273,0.0,73.48546600341797,-74.83231353759766,49.372779846191406,-28.582714080810547,20.026721954345703,0.0
2529,-2.942626953125,-3.820068359375,-4.931884765625,494.0,-481.0,376.0,-33.63044357299805,25.253400802612305,0.0,73.52317810058594,-74.86903381347656,49.40148162841797,-28.57916259765625,20.02535629272461,0.0
2534,-2.94580078125,-3.82373046875,-4.921142578125,479.0,-504.0,353.0,-33.690738677978516,25.299400329589844,0.0,73.55974578857422,-74.90750885009766,49.428428649902344,-28.577171325683594,20.02256202697754,0.0
2539,-2.94384765625,-3.830810546875,-4.920654296875,490.0,-484.0,342.0,-33.746238708496094,25.270662307739258,0.0,73.59715270996094,-74.9444580078125,49.45453643798828,-28.57472801208496,20.021102905273438,0.0
2544,-2.944091796875,-3.82763671875,-4.921875,479.0,-502.0,376.0,-33.718894958496094,25.27599334716797,0.0,73.63372039794922,-74.98278045654297,49.483238220214844,-28.572946548461914,20.018321990966797,0.0
2549,-2.9453125,-3.824951171875,-4.924072265625,479.0,-480.0,352.0,-33.68874740600586,25.28485679626465,0.0,73.6702880859375,-75.01942443847656,49.510108947753906,-28.570968627929688,20.01728057861328,0.0
2554,-2.943359375,-3.8291015625,-4.92333984375,479.0,-480.0,337.0,-33.724952697753906,25.263198852539062,0.0,73.70685577392578,-75.05606842041016,49.53583526611328,-28.569242477416992,20.016096115112305,0.0
2559,-2.943115234375,-3.828125,-4.926025390625,481.0,-516.0,327.0,-33.708152770996094,25.2559757232666,0.0,73.74357604980469,-75.095458984375,49.56079864501953,-28.567258834838867,20.01213836669922,0.0
2564,-2.943359375,-3.8193359375,-4.93115234375,491.0,-491.0,312.0,-33.62654113769531,25.26254653930664,0.0,73.78105926513672,-75.13294219970703,49.58461380004883,-28.56397819519043,20.010141372680664,0.0
2569,-2.945068359375,-3.82861328125,-4.931396484375,477.0,-487.0,310.0,-33.6856689453125,25.254552841186523,0.0,73.81747436523438,-75.17012023925781,49.6082763671875,-28.562175750732422,20.00840187072754,0.0
2574,-2.939453125,-3.826171875,-4.927734375,492.0,-517.0,325.0,-33.6965446472168,25.227920532226562,0.0,73.85503387451172,-75.20958709716797,49.633087158203125,-28.559314727783203,20.00421714782715,0.0
2579,-2.947265625,-3.83154296875,-4.926025390625,468.0,-502.0,327.0,-33.721946716308594,25.279706954956055,0.0,73.89076232910156,-75.24790954589844,49.658050537109375,-28.558460235595703,20.001541137695312,0.0
2584,-2.9423828125,-3.827880859375,-4.923583984375,468.0,-482.0,355.0,-33.71786117553711,25.257835388183594,0.0,73.9264907836914,-75.28470611572266,49.685150146484375,-28.557579040527344,20.000247955322266,0.0
2589,-2.94140625,-3.830078125,-4.923095703125,473.0,-489.0,344.0,-33.73728942871094,25.247081756591797,0.0,73.96260070800781,-75.32203674316406,49.71141052246094,-28.55645179748535,19.998355865478516,0.0
2594,-2.94091796875,-3.826416015625,-4.927978515625,479.0,-487.0,357.0,-33.69380569458008,25.237714767456055,0.0,73.9991683959961,-75.35921478271484,49.73866271972656,-28.55457878112793,19.99656105041504,0.0
2599,-2.9423828125,-3.826171875,-4.91552734375,480.0,-479.0,348.0,-33.73796081542969,25.28412437438965,0.0,74.03581237792969,-75.39578247070312,49.765228271484375,-28.552934646606445,19.995691299438477,0.0
2604,-2.9404296875,-3.827880859375,-4.921630859375,478.0,-476.0,350.0,-33.730220794677734,25.24862289428711,0.0,74.07230377197266,-75.43212127685547,49.79194641113281,-28.5513973236084,19.994813919067383,0.0
2609,-2.94580078125,-3.826171875,-4.92431640625,492.0,-494.0,320.0,-33.695064544677734,25.285184860229492,0.0,74.10986328125,-75.46983337402344,49.816375732421875,-28.548568725585938,19.992816925048828,0.0
2614,-2.94482421875,-3.82275390625,-4.9267578125,497.0,-485.0,319.0,-33.66408920288086,25.278440475463867,0.0,74.1478042602539,-75.5068588256836,49.840728759765625,-28.545167922973633,19.991466522216797,0.0
2620,-2.940673828125,-3.826904296875,-4.927978515625,467.0,-507.0,324.0,-33.697757720947266,25.234821319580078,0.0,74.18345642089844,-75.54556274414062,49.86546325683594,-28.544288635253906,19.988161087036133,0.0
2625,-2.940673828125,-3.830322265625,-4.92578125,497.0,-486.0,305.0,-33.730072021484375,25.233539581298828,0.0,74.2289810180664,-75.59008026123047,49.893402099609375,-28.533916473388672,19.979188919067383,0.0
2630,-2.941162109375,-3.818603515625,-4.922607421875,486.0,-521.0,332.0,-33.66044616699219,25.271583557128906,0.0,74.26608276367188,-75.62985229492188,49.91874694824219,-28.531511306762695,19.975244522094727,0.0
2635,-2.94287109375,-3.828857421875,-4.919189453125,472.0,-487.0,321.0,-33.74085998535156,25.27168083190918,0.0,74.30211639404297,-75.66703033447266,49.94325256347656,-28.530719757080078,19.973899841308594,0.0
2640,-2.94189453125,-3.82666015625,-4.920654296875,478.0,-510.0,348.0,-33.72218322753906,25.265026092529297,0.0,74.33860778808594,-75.70596313476562,49.969818115234375,-28.529346466064453,19.97076988220215,0.0
2645,-2.94384765625,-3.8232421875,-4.924560546875,481.0,-483.0,344.0,-33.678462982177734,25.276201248168945,0.0,74.37532806396484,-75.74283599853516,49.99607849121094,-28.527456283569336,19.969778060913086,0.0
2650,-2.94384765625,-3.826171875,-4.92333984375,487.0,-484.0,365.0,-33.70355224609375,25.273244857788086,0.0,74.41250610351562,-75.77978515625,50.02394104003906,-28.525287628173828,19.968690872192383,0.0
2655,-2.94287109375,-3.826171875,-4.923828125,498.0,-489.0,354.0,-33.70392990112305,25.26453971862793,0.0,74.45052337646484,-75.8171157836914,50.05096435546875,-28.522296905517578,19.9671688079834,0.0
2660,-2.945068359375,-3.827880859375,-4.918212890625,491.0,-488.0,368.0,-33.73276901245117,25.293058395385742,0.0,74.48800659179688,-75.8543701171875,50.07905578613281,-28.52004623413086,19.965919494628906,0.0
2665,-2.944091796875,-3.825439453125,-4.923095703125,483.0,-525.0,347.0,-33.698875427246094,25.277359008789062,0.0,74.5248794555664,-75.89444732666016,50.10554504394531,-28.518184661865234,19.961763381958008,0.0
2670,-2.943115234375,-3.826171875,-4.928955078125,492.0,-505.0,354.0,-33.683067321777344,25.25201988220215,0.0,74.56243896484375,-75.93299865722656,50.132568359375,-28.51554298400879,19.95897674560547,0.0
2675,-2.945556640625,-3.82568359375,-4.927734375,472.0,-474.0,334.0,-33.67875289916992,25.274837493896484,0.0,74.59847259521484,-75.96918487548828,50.15806579589844,-28.514402389526367,19.958709716796875,0.0
2680,-2.94287109375,-3.824951171875,-4.92138671875,460.0,-489.0,318.0,-33.70515441894531,25.274036407470703,0.0,74.63359069824219,-76.00651550292969,50.18233871459961,-28.51435089111328,19.957294464111328,0.0
2685,-2.941650390625,-3.829833984375,-4.92529296875,484.0,-512.0,320.0,-33.726322174072266,25.243303298950195,0.0,74.67053985595703,-76.04560089111328,50.20676803588867,-28.512617111206055,19.953935623168945,0.0
2690,-2.944091796875,-3.82763671875,-4.924072265625,470.0,-463.0,328.0,-33.71019744873047,25.269840240478516,0.0,74.7064208984375,-76.08094787597656,50.231807708740234,-28.511844635009766,19.954486846923828,0.0
2695,-2.94775390625,-3.82763671875,-4.922119140625,485.0,-454.0,327.0,-33.70925521850586,25.302820205688477,0.0,74.74344635009766,-76.1156005859375,50.256771087646484,-28.50992774963379,19.955934524536133,0.0
2700,-2.944091796875,-3.8251953125,-4.927734375,457.0,-485.0,327.0,-33.678836822509766,25.264894485473633,0.0,74.77833557128906,-76.15262603759766,50.281734466552734,-28.509939193725586,19.954761505126953,0.0
2705,-2.940673828125,-3.825439453125,-4.931640625,491.0,-501.0,345.0,-33.67314529418945,25.227758407592773,0.0,74.8158187866211,-76.19087219238281,50.30807113647461,-28.5073299407959,19.952131271362305,0.0
2710,-2.944091796875,-3.82861328125,-4.92041015625,459.0,-501.0,358.0,-33.7314453125,25.27796745300293,0.0,74.85086059570312,-76.22911834716797,50.33539962768555,-28.507551193237305,19.94985008239746,0.0
2715,-2.9423828125,-3.820556640625,-4.925048828125,491.0,-482.0,355.0,-33.66141891479492,25.26966667175293,0.0,74.88834381103516,-76.26591491699219,50.36249923706055,-28.504871368408203,19.948965072631836,0.0
2720,-2.939208984375,-3.830810546875,-4.91943359375,472.0,-498.0,336.0,-33.76206588745117,25.239213943481445,0.0,74.92437744140625,-76.3039321899414,50.38814926147461,-28.504322052001953,19.946664810180664,0.0
2725,-2.9423828125,-3.82861328125,-4.92626953125,477.0,-493.0,369.0,-33.7122917175293,25.24872589111328,0.0,74.9607925415039,-76.34156799316406,50.416316986083984,-28.50305938720703,19.9448184967041,0.0
2730,-2.944580078125,-3.8203125,-4.923583984375,485.0,-488.0,353.0,-33.66032791137695,25.290821075439453,0.0,74.99781799316406,-76.37882232666016,50.44326400756836,-28.500844955444336,19.943641662597656,0.0
2735,-2.94287109375,-3.828125,-4.92333984375,488.0,-493.0,348.0,-33.7193603515625,25.261655807495117,0.0,75.03507232666016,-76.41645812988281,50.46982955932617,-28.498809814453125,19.94189453125,0.0
2740,-2.94384765625,-3.824951171875,-4.9287109375,482.0,-500.0,355.0,-33.673866271972656,25.26085662841797,0.0,75.07186889648438,-76.45462799072266,50.49692916870117,-28.49693489074707,19.939619064331055,0.0
2745,-2.9423828125,-3.822998046875,-4.9189453125,502.0,-486.0,334.0,-33.70246505737305,25.281463623046875,0.0,75.11019134521484,-76.49172973632812,50.52242660522461,-28.493743896484375,19.938552856445312,0.0
2750,-2.94091796875,-3.825439453125,-4.918212890625,469.0,-478.0,329.0,-33.72572708129883,25.267181396484375,0.0,75.14599609375,-76.5282211303711,50.547542572021484,-28.493228912353516,19.93800163269043,0.0
2756,-2.944091796875,-3.829345703125,-4.92529296875,471.0,-498.0,351.0,-33.71717834472656,25.262704849243164,0.0,75.18195343017578,-76.56623840332031,50.574337005615234,-28.492504119873047,19.935903549194336,0.0
2761,-2.94140625,-3.826416015625,-4.92333984375,474.0,-494.0,351.0,-33.71101379394531,25.25436782836914,0.0,75.22537231445312,-76.61148834228516,50.60649108886719,-28.484424591064453,19.92667579650879,0.0
2766,-2.946044921875,-3.82373046875,-4.920654296875,485.0,-472.0,344.0,-33.69209289550781,25.30260467529297,0.0,75.26239776611328,-76.64752197265625,50.63275146484375,-28.482620239257812,19.92698860168457,0.0
2771,-2.940185546875,-3.83251953125,-4.9267578125,488.0,-474.0,338.0,-33.742530822753906,25.222366333007812,0.0,75.29965209960938,-76.68370819091797,50.65855407714844,-28.48093605041504,19.926605224609375,0.0
2776,-2.939697265625,-3.82763671875,-4.92822265625,469.0,-480.0,338.0,-33.704158782958984,25.225210189819336,0.0,75.33545684814453,-76.72035217285156,50.684356689453125,-28.48044204711914,19.92578125,0.0
2781,-2.94677734375,-3.824462890625,-4.921630859375,470.0,-487.0,357.0,-33.691558837890625,25.30377197265625,0.0,75.371337890625,-76.75753021240234,50.71160888671875,-28.479785919189453,19.924955368041992,0.0
2786,-2.946533203125,-3.83154296875,-4.922119140625,477.0,-471.0,369.0,-33.7391357421875,25.285140991210938,0.0,75.40775299072266,-76.79348754882812,50.739776611328125,-28.478918075561523,19.92521858215332,0.0
2791,-2.944580078125,-3.82958984375,-4.92724609375,462.0,-482.0,334.0,-33.70998001098633,25.260374069213867,0.0,75.44302368164062,-76.83028411865234,50.76527404785156,-28.478992462158203,19.924474716186523,0.0
2796,-2.944580078125,-3.823974609375,-4.9248046875,482.0,-477.0,349.0,-33.68083190917969,25.27942657470703,0.0,75.47982025146484,-76.86669921875,50.79191589355469,-28.47734832763672,19.924238204956055,0.0
2801,-2.946533203125,-3.82421875,-4.92626953125,483.0,-469.0,316.0,-33.6721076965332,25.28946304321289,0.0,75.51669311523438,-76.90250396728516,50.816036224365234,-28.475576400756836,19.924673080444336,0.0
2806,-2.94287109375,-3.826171875,-4.928955078125,463.0,-509.0,326.0,-33.68364334106445,25.250186920166016,0.0,75.55204010009766,-76.94136047363281,50.84092330932617,-28.475406646728516,19.921802520751953,0.0
2811,-2.944580078125,-3.821044921875,-4.927001953125,500.0,-481.0,328.0,-33.65188217163086,25.279638290405273,0.0,75.5902099609375,-76.97808074951172,50.865962982177734,-28.47221565246582,19.921266555786133,0.0
2816,-2.944091796875,-3.823974609375,-4.931396484375,488.0,-459.0,316.0,-33.65592575073242,25.257293701171875,0.0,75.6274642944336,-77.01312255859375,50.89008331298828,-28.46997833251953,19.92224884033203,0.0
2821,-2.94482421875,-3.831298828125,-4.923828125,489.0,-479.0,322.0,-33.7347297668457,25.26805305480957,0.0,75.664794921875,-77.04969024658203,50.91466522216797,-28.468202590942383,19.921775817871094,0.0
2826,-2.94384765625,-3.82666015625,-4.919189453125,477.0,-460.0,363.0,-33.72335433959961,25.283809661865234,0.0,75.70121002197266,-77.08480834960938,50.94237518310547,-28.467269897460938,19.922847747802734,0.0
2831,-2.943603515625,-3.822021484375,-4.92041015625,498.0,-492.0,343.0,-33.68701934814453,25.28866195678711,0.0,75.73922729492188,-77.12236785888672,50.96855926513672,-28.464502334594727,19.9215145111084,0.0
2836,-2.942626953125,-3.829345703125,-4.92529296875,477.0,-511.0,351.0,-33.72064208984375,25.25170135498047,0.0,75.77564239501953,-77.161376953125,50.99535369873047,-28.46356773376465,19.918498992919922,0.0
2841,-2.94140625,-3.8291015625,-4.924560546875,479.0,-478.0,342.0,-33.7247428894043,25.24510955810547,0.0,75.81221008300781,-77.19786834716797,51.021461486816406,-28.462509155273438,19.91795539855957,0.0
2846,-2.94189453125,-3.82373046875,-4.9248046875,480.0,-486.0,367.0,-33.68549346923828,25.259777069091797,0.0,75.8488540649414,-77.23497009277344,51.049476623535156,-28.46111488342285,19.916902542114258,0.0
2851,-2.940673828125,-3.827392578125,-4.927978515625,474.0,-486.0,331.0,-33.70112991333008,25.233760833740234,0.0,75.88504028320312,-77.2720718383789,51.074745178222656,-28.46028709411621,19.915679931640625,0.0
2856,-2.940185546875,-3.828857421875,-4.918212890625,466.0,-493.0,328.0,-33.751094818115234,25.25422477722168,0.0,75.92061614990234,-77.30970764160156,51.09978485107422,-28.460403442382812,19.9140682220459,0.0
2861,-2.94873046875,-3.8271484375,-4.915283203125,475.0,-502.0,328.0,-33.730613708496094,25.330392837524414,0.0,75.95687866210938,-77.34803009033203,51.12482452392578,-28.45969581604004,19.912290573120117,0.0
2866,-2.947021484375,-3.82275390625,-4.925048828125,482.0,-474.0,312.0,-33.665653228759766,25.299741744995117,0.0,75.9936752319336,-77.38421630859375,51.14863967895508,-28.45802116394043,19.912439346313477,0.0
2871,-2.93994140625,-3.8232421875,-4.925537109375,486.0,-496.0,330.0,-33.683834075927734,25.24410629272461,0.0,76.03077697753906,-77.42208099365234,51.173831939697266,-28.456172943115234,19.910541534423828,0.0
2876,-2.94189453125,-3.825927734375,-4.92431640625,476.0,-491.0,313.0,-33.70261764526367,25.256364822387695,0.0,76.0671157836914,-77.45956420898438,51.197723388671875,-28.455217361450195,19.90911293029785,0.0
2881,-2.94189453125,-3.826416015625,-4.921875,465.0,-498.0,341.0,-33.715660095214844,25.26213836669922,0.0,76.10261535644531,-77.4975814819336,51.2237548828125,-28.45518684387207,19.90719985961914,0.0
2886,-2.9404296875,-3.83056640625,-4.927490234375,472.0,-485.0,345.0,-33.72556686401367,25.226396560668945,0.0,76.1386489868164,-77.53460693359375,51.250091552734375,-28.454687118530273,19.90604019165039,0.0
2892,-2.940185546875,-3.831298828125,-4.92041015625,463.0,-500.0,356.0,-33.759254455566406,25.242761611938477,0.0,76.17399597167969,-77.5727767944336,51.27726745605469,-28.455095291137695,19.903858184814453,0.0
2897,-2.948486328125,-3.826171875,-4.92236328125,481.0,-483.0,362.0,-33.69643020629883,25.310829162597656,0.0,76.21805572509766,-77.61701965332031,51.310428619384766,-28.446517944335938,19.896211624145508,0.0
2902,-2.941650390625,-3.826904296875,-4.9228515625,474.0,-494.0,350.0,-33.71574401855469,25.256505966186523,0.0,76.25424194335938,-77.65473175048828,51.3371467590332,-28.44594955444336,19.894737243652344,0.0
2907,-2.944091796875,-3.82470703125,-4.923828125,484.0,-471.0,347.0,-33.690914154052734,25.276901245117188,0.0,76.29119110107422,-77.69068908691406,51.3636360168457,-28.444454193115234,19.89514923095703,0.0
