Time,Acc_low_X,Acc_low_Y,Acc_low_Z,Gyro_low_X,Gyro_low_Y,Gyro_low_Z,Acc_X,Acc_Y,Acc_Z,Gyro_X,Gyro_Y,Gyro_Z,Euler_X,Euler_Y,Euler_Z
5,-3.928955078125,-2.83349609375,-4.930419921875,499.0,-518.0,322.0,-24.201335906982422,34.641029357910156,0.0,99.51050567626953,-103.29947662353516,64.21318817138672,-23.79480743408203,34.187747955322266,0.0
10,-3.926025390625,-2.830078125,-4.92529296875,514.0,-525.0,338.0,-24.1953182220459,34.650028228759766,0.0,99.54974365234375,-103.33955383300781,64.2389907836914,-23.975088119506836,34.398441314697266,0.0
15,-3.930419921875,-2.8310546875,-4.922119140625,515.0,-490.0,322.0,-24.201826095581055,34.690704345703125,0.0,99.58905792236328,-103.37696075439453,64.2635726928711,-24.024368286132812,34.4708137512207,0.0
20,-3.92626953125,-2.8291015625,-4.921630859375,493.0,-500.0,302.0,-24.197147369384766,34.668975830078125,0.0,99.62669372558594,-103.41513061523438,64.28662872314453,-24.039302825927734,34.49169158935547,0.0
25,-3.928466796875,-2.8291015625,-4.921142578125,506.0,-446.0,301.0,-24.193782806396484,34.68597412109375,0.0,99.66532135009766,-103.44917297363281,64.30960845947266,-24.039283752441406,34.503292083740234,0.0
30,-3.9296875,-2.83251953125,-4.92236328125,504.0,-444.0,315.0,-24.213815689086914,34.68125915527344,0.0,99.70379638671875,-103.48306274414062,64.33365631103516,-24.036306381225586,34.504703521728516,0.0
35,-3.9287109375,-2.8271484375,-4.927001953125,501.0,-468.0,304.0,-24.162912368774414,34.668243408203125,0.0,99.7420425415039,-103.51879119873047,64.35686492919922,-24.02161407470703,34.4974479675293,0.0
40,-3.928466796875,-2.828369140625,-4.92041015625,480.0,-480.0,300.0,-24.190183639526367,34.69070053100586,0.0,99.7786865234375,-103.55543518066406,64.37976837158203,-24.01063346862793,34.48955535888672,0.0
45,-3.927001953125,-2.83203125,-4.925537109375,507.0,-471.0,317.0,-24.207378387451172,34.65110397338867,0.0,99.81739044189453,-103.59139251708984,64.40396881103516,-23.998109817504883,34.47555923461914,0.0
50,-3.927001953125,-2.8310546875,-4.92138671875,505.0,-480.0,290.0,-24.211029052734375,34.670379638671875,0.0,99.85594177246094,-103.62803649902344,64.42610931396484,-23.984731674194336,34.46208572387695,0.0
55,-3.930908203125,-2.827880859375,-4.927978515625,495.0,-488.0,285.0,-24.161212921142578,34.67751693725586,0.0,99.89373016357422,-103.66529083251953,64.44786834716797,-23.966447830200195,34.44783401489258,0.0
60,-3.9296875,-2.8349609375,-4.92626953125,503.0,-497.0,326.0,-24.221893310546875,34.659542083740234,0.0,99.93212890625,-103.70323181152344,64.4727554321289,-23.952577590942383,34.43073272705078,0.0
65,-3.927001953125,-2.8349609375,-4.928955078125,503.0,-515.0,284.0,-24.220443725585938,34.6302490234375,0.0,99.97052764892578,-103.74254608154297,64.49443817138672,-23.937786102294922,34.40982437133789,0.0
70,-3.9267578125,-2.83203125,-4.925537109375,483.0,-460.0,296.0,-24.207895278930664,34.649436950683594,0.0,100.00740051269531,-103.77766418457031,64.51703643798828,-23.922893524169922,34.394378662109375,0.0
75,-3.92724609375,-2.832275390625,-4.926513671875,503.0,-465.0,282.0,-24.20611000061035,34.64820098876953,0.0,100.0457992553711,-103.81316375732422,64.53856658935547,-23.90599822998047,34.37822341918945,0.0
80,-3.928466796875,-2.836181640625,-4.931884765625,491.0,-462.0,288.0,-24.21877670288086,34.62541198730469,0.0,100.08328247070312,-103.84843444824219,64.56055450439453,-23.890478134155273,34.36066818237305,0.0
85,-3.9296875,-2.833251953125,-4.926025390625,490.0,-455.0,296.0,-24.209619522094727,34.66455841064453,0.0,100.12068939208984,-103.88317108154297,64.5831527709961,-23.87412452697754,34.34592819213867,0.0
91,-3.93359375,-2.833740234375,-4.928466796875,497.0,-459.0,288.0,-24.198543548583984,34.68006134033203,0.0,100.15863037109375,-103.918212890625,64.60514068603516,-23.856401443481445,34.331485748291016,0.0
96,-3.9287109375,-2.835205078125,-4.923583984375,503.0,-481.0,322.0,-24.23295783996582,34.66328430175781,0.0,100.20470428466797,-103.96227264404297,64.63463592529297,-23.832683563232422,34.307308197021484,0.0
101,-3.930908203125,-2.836669921875,-4.924560546875,498.0,-495.0,305.0,-24.236772537231445,34.67082977294922,0.0,100.24272155761719,-104.00006103515625,64.65792083740234,-23.816898345947266,34.289703369140625,0.0
106,-3.928466796875,-2.8369140625,-4.919189453125,517.0,-510.0,323.0,-24.25810432434082,34.675559997558594,0.0,100.28218841552734,-104.03899383544922,64.68257904052734,-23.800464630126953,34.27112579345703,0.0
111,-3.923583984375,-2.837890625,-4.928955078125,514.0,-496.0,363.0,-24.24984359741211,34.600040435791016,0.0,100.32142639160156,-104.07685852050781,64.71028900146484,-23.78359031677246,34.25004959106445,0.0
116,-3.931640625,-2.833251953125,-4.924072265625,494.0,-484.0,334.0,-24.210668563842773,34.68586730957031,0.0,100.35913848876953,-104.11380767822266,64.73578643798828,-23.766239166259766,34.23381423950195,0.0
121,-3.9228515625,-2.829345703125,-4.9208984375,500.0,-472.0,320.0,-24.20819854736328,34.6480598449707,0.0,100.39730834960938,-104.14984130859375,64.76021575927734,-23.748239517211914,34.216697692871094,0.0
126,-3.92578125,-2.837646484375,-4.9267578125,496.0,-496.0,322.0,-24.249189376831055,34.62458038330078,0.0,100.43517303466797,-104.18770599365234,64.78479766845703,-23.732118606567383,34.19682312011719,0.0
131,-3.931884765625,-2.833251953125,-4.923583984375,531.0,-455.0,279.0,-24.21144676208496,34.68952941894531,0.0,100.4757080078125,-104.22244262695312,64.80609893798828,-23.711769104003906,34.18257141113281,0.0
136,-3.9306640625,-2.833740234375,-4.92919921875,482.0,-474.0,286.0,-24.20280647277832,34.65709686279297,0.0,100.51250457763672,-104.25862884521484,64.82793426513672,-23.694725036621094,34.16550064086914,0.0
141,-3.928466796875,-2.832275390625,-4.921875,496.0,-475.0,312.0,-24.215858459472656,34.675506591796875,0.0,100.55036926269531,-104.29489135742188,64.85175323486328,-23.677047729492188,34.14896774291992,0.0
146,-3.92822265625,-2.83056640625,-4.928955078125,502.0,-490.0,314.0,-24.18462371826172,34.64889907836914,0.0,100.58869171142578,-104.3322982788086,64.87572479248047,-23.65777587890625,34.130313873291016,0.0
151,-3.927490234375,-2.830078125,-4.92431640625,511.0,-522.0,294.0,-24.194808959960938,34.66402053833008,0.0,100.62770080566406,-104.37214660644531,64.8981704711914,-23.638214111328125,34.10982894897461,0.0
156,-3.9267578125,-2.826416015625,-4.9267578125,546.0,-483.0,322.0,-24.162151336669922,34.65763473510742,0.0,100.66938018798828,-104.40901947021484,64.9227523803711,-23.615028381347656,34.09207534790039,0.0
161,-3.928466796875,-2.83251953125,-4.92724609375,498.0,-506.0,304.0,-24.203420639038086,34.65296173095703,0.0,100.7073974609375,-104.44764709472656,64.94596099853516,-23.596872329711914,34.07245635986328,0.0
166,-3.92919921875,-2.830810546875,-4.926025390625,491.0,-481.0,311.0,-24.19218635559082,34.666969299316406,0.0,100.74488067626953,-104.48436737060547,64.9697036743164,-23.5788631439209,34.0551643371582,0.0
171,-3.929443359375,-2.82763671875,-4.9208984375,489.0,-463.0,308.0,-24.1812686920166,34.697086334228516,0.0,100.78221130371094,-104.51971435546875,64.99321746826172,-23.560659408569336,34.04006576538086,0.0
176,-3.9287109375,-2.8310546875,-4.923828125,498.0,-473.0,293.0,-24.200908660888672,34.672054290771484,0.0,100.82022857666016,-104.55582427978516,65.01558685302734,-23.542360305786133,34.023380279541016,0.0
181,-3.927490234375,-2.83154296875,-4.91748046875,509.0,-461.0,307.0,-24.224082946777344,34.68855285644531,0.0,100.85908508300781,-104.59101867675781,65.03902435302734,-23.523889541625977,34.00800323486328,0.0
186,-3.9296875,-2.833251953125,-4.923583984375,492.0,-491.0,298.0,-24.216110229492188,34.67454147338867,0.0,100.89664459228516,-104.62850189208984,65.06177520751953,-23.506439208984375,33.98992156982422,0.0
191,-3.927490234375,-2.83154296875,-4.9267578125,494.0,-471.0,320.0,-24.19940185546875,34.65059280395508,0.0,100.93435668945312,-104.66445922851562,65.0862045288086,-23.488351821899414,33.97267532348633,0.0
196,-3.9267578125,-2.8349609375,-4.92529296875,502.0,-503.0,285.0,-24.230709075927734,34.64354705810547,0.0,100.9726791381836,-104.7028579711914,65.10796356201172,-23.470481872558594,33.952857971191406,0.0
201,-3.926513671875,-2.833740234375,-4.92626953125,492.0,-502.0,318.0,-24.219392776489258,34.6407585144043,0.0,101.01023864746094,-104.74118041992188,65.13224029541016,-23.453033447265625,33.93310546875,0.0
206,-3.927001953125,-2.833251953125,-4.919677734375,494.0,-511.0,281.0,-24.232208251953125,34.67219924926758,0.0,101.0479507446289,-104.78018951416016,65.15369415283203,-23.43572425842285,33.91352844238281,0.0
211,-3.927734375,-2.83544921875,-4.9267578125,478.0,-491.0,305.0,-24.228429794311523,34.64307403564453,0.0,101.08444213867188,-104.81767272949219,65.1769790649414,-23.41947364807129,33.894771575927734,0.0
216,-3.92919921875,-2.831787109375,-4.92236328125,510.0,-458.0,311.0,-24.20931053161621,34.67965316772461,0.0,101.12337493896484,-104.8526382446289,65.20072174072266,-23.40032386779785,33.87937927246094,0.0
221,-3.929931640625,-2.8359375,-4.92236328125,494.0,-498.0,319.0,-24.239152908325195,34.67487716674805,0.0,101.16108703613281,-104.89065551757812,65.2250747680664,-23.383085250854492,33.86083221435547,0.0
227,-3.93115234375,-2.834228515625,-4.923583984375,484.0,-465.0,328.0,-24.220388412475586,34.68223571777344,0.0,101.19803619384766,-104.92615509033203,65.25011444091797,-23.366127014160156,33.84492874145508,0.0
232,-3.927978515625,-2.831787109375,-4.92333984375,508.0,-456.0,313.0,-24.20930290222168,34.667327880859375,0.0,101.24456787109375,-104.96792602539062,65.2787857055664,-23.339536666870117,33.82252883911133,0.0
237,-3.92724609375,-2.8310546875,-4.9306640625,504.0,-475.0,320.0,-24.185842514038086,34.63410568237305,0.0,101.28304290771484,-105.00418853759766,65.30321502685547,-23.320497512817383,33.804893493652344,0.0
242,-3.92822265625,-2.833740234375,-4.925537109375,498.0,-493.0,308.0,-24.21771812438965,34.65541458129883,0.0,101.32106018066406,-105.04182434082031,65.32672882080078,-23.302623748779297,33.7863883972168,0.0
247,-3.927490234375,-2.836181640625,-4.9267578125,506.0,-481.0,325.0,-24.234485626220703,34.639686584472656,0.0,101.35968780517578,-105.07854461669922,65.3515396118164,-23.28449821472168,33.76847457885742,0.0
252,-3.926025390625,-2.83056640625,-4.927490234375,490.0,-487.0,312.0,-24.19317054748535,34.639892578125,0.0,101.3970947265625,-105.11572265625,65.37535858154297,-23.266706466674805,33.75013732910156,0.0
257,-3.929443359375,-2.82958984375,-4.92919921875,501.0,-495.0,324.0,-24.17400360107422,34.65851974487305,0.0,101.43534088134766,-105.15351104736328,65.40009307861328,-23.247705459594727,33.73160934448242,0.0
262,-3.92626953125,-2.831298828125,-4.9248046875,507.0,-488.0,321.0,-24.205337524414062,34.650821685791016,0.0,101.47404479980469,-105.19076538085938,65.42459869384766,-23.228918075561523,33.713478088378906,0.0
267,-3.92724609375,-2.83056640625,-4.92138671875,483.0,-480.0,317.0,-24.20681381225586,34.673194885253906,0.0,101.51091766357422,-105.22740936279297,65.44879913330078,-23.211977005004883,33.696407318115234,0.0
272,-3.9296875,-2.831787109375,-4.929931640625,501.0,-485.0,287.0,-24.188159942626953,34.65203094482422,0.0,101.54916381835938,-105.26443481445312,65.47071075439453,-23.193315505981445,33.67854690551758,0.0
277,-3.9296875,-2.8291015625,-4.92431640625,473.0,-474.0,309.0,-24.18276023864746,34.681312561035156,0.0,101.58527374267578,-105.30062103271484,65.49430084228516,-23.17667579650879,33.662086486816406,0.0
282,-3.92333984375,-2.83544921875,-4.916015625,508.0,-471.0,299.0,-24.266389846801758,34.65699005126953,0.0,101.62405395507812,-105.33657836914062,65.51712799072266,-23.158966064453125,33.64537811279297,0.0
287,-3.926025390625,-2.832763671875,-4.927734375,474.0,-470.0,320.0,-24.209144592285156,34.63373565673828,0.0,101.66024017333984,-105.3724594116211,65.54155731201172,-23.142742156982422,33.628318786621094,0.0
292,-3.927734375,-2.830810546875,-4.927734375,490.0,-471.0,286.0,-24.19074821472168,34.649986267089844,0.0,101.69764709472656,-105.40841674804688,65.56339263916016,-23.124963760375977,33.611488342285156,0.0
297,-3.927734375,-2.837890625,-4.92822265625,492.0,-496.0,318.0,-24.242990493774414,34.631351470947266,0.0,101.7352066040039,-105.44628143310547,65.5876693725586,-23.107980728149414,33.59246063232422,0.0
302,-3.931640625,-2.833251953125,-4.9228515625,502.0,-497.0,308.0,-24.213912963867188,34.690860748291016,0.0,101.77352905273438,-105.48422241210938,65.6111831665039,-23.089725494384766,33.5744514465332,0.0
307,-3.9287109375,-2.83203125,-4.927734375,501.0,-481.0,304.0,-24.197912216186523,34.653778076171875,0.0,101.81177520751953,-105.52094268798828,65.63439178466797,-23.071287155151367,33.55701446533203,0.0
312,-3.926513671875,-2.834228515625,-4.925537109375,517.0,-483.0,302.0,-24.22503662109375,34.64260482788086,0.0,101.85124206542969,-105.55781555175781,65.6574478149414,-23.05213737487793,33.53925704956055,0.0
317,-3.93359375,-2.832275390625,-4.92236328125,494.0,-496.0,298.0,-24.203676223754883,34.70847702026367,0.0,101.88895416259766,-105.5956802368164,65.6801986694336,-23.034387588500977,33.52165603637695,0.0
322,-3.923828125,-2.833984375,-4.927490234375,486.0,-474.0,299.0,-24.22368621826172,34.61686706542969,0.0,101.92605590820312,-105.63186645507812,65.7030258178711,-23.0175838470459,33.50419616699219,0.0
327,-3.924560546875,-2.832763671875,-4.92578125,501.0,-439.0,280.0,-24.217449188232422,34.63172149658203,0.0,101.96430206298828,-105.66537475585938,65.72440338134766,-22.999549865722656,33.4896354675293,0.0
332,-3.933349609375,-2.837890625,-4.91796875,496.0,-472.0,298.0,-24.258352279663086,34.71155548095703,0.0,102.00216674804688,-105.70140838623047,65.74715423583984,-22.982568740844727,33.4738655090332,0.0
337,-3.923583984375,-2.837646484375,-4.9267578125,471.0,-479.0,293.0,-24.253854751586914,34.60958480834961,0.0,102.03812408447266,-105.73797607421875,65.76952362060547,-22.967390060424805,33.4559326171875,0.0
342,-3.925537109375,-2.831787109375,-4.923828125,509.0,-483.0,310.0,-24.213184356689453,34.64866638183594,0.0,102.07698059082031,-105.77484893798828,65.7931900024414,-22.948686599731445,33.438350677490234,0.0
347,-3.927001953125,-2.834716796875,-4.9248046875,481.0,-486.0,302.0,-24.229642868041992,34.64778137207031,0.0,102.11370086669922,-105.81195068359375,65.81624603271484,-22.932374954223633,33.42055892944336,0.0
352,-3.9287109375,-2.833740234375,-4.928955078125,457.0,-463.0,308.0,-24.207592010498047,34.644775390625,0.0,102.14859008789062,-105.84729766845703,65.83975982666016,-22.917526245117188,33.40447998046875,0.0
357,-3.927734375,-2.83447265625,-4.927490234375,528.0,-493.0,308.0,-24.219097137451172,34.64237976074219,0.0,102.18889617919922,-105.88493347167969,65.86327362060547,-22.897491455078125,33.38611602783203,0.0
363,-3.927978515625,-2.836181640625,-4.92578125,476.0,-490.0,301.0,-24.23604965209961,34.647010803222656,0.0,102.22523498535156,-105.9223403930664,65.8862533569336,-22.881677627563477,33.36809158325195,0.0
368,-3.9267578125,-2.828125,-4.920654296875,499.0,-488.0,324.0,-24.191312789916992,34.67860794067383,0.0,102.27094268798828,-105.967041015625,65.91593170166016,-22.85598373413086,33.34340286254883,0.0
373,-3.927734375,-2.83056640625,-4.919921875,487.0,-479.0,322.0,-24.209672927856445,34.682525634765625,0.0,102.30812072753906,-106.00360870361328,65.94051361083984,-22.839109420776367,33.32691955566406,0.0
378,-3.930419921875,-2.82861328125,-4.920166015625,503.0,-479.0,316.0,-24.188535690307617,34.70445251464844,0.0,102.34651947021484,-106.04017639160156,65.96463775634766,-22.820737838745117,33.310760498046875,0.0
383,-3.931396484375,-2.83837890625,-4.92626953125,491.0,-455.0,315.0,-24.24410629272461,34.663150787353516,0.0,102.38400268554688,-106.07491302490234,65.98868560791016,-22.80409812927246,33.29581832885742,0.0
388,-3.927001953125,-2.830322265625,-4.92333984375,517.0,-468.0,296.0,-24.200288772583008,34.66411209106445,0.0,102.42346954345703,-106.11064147949219,66.01128387451172,-22.784889221191406,33.279903411865234,0.0
393,-3.929931640625,-2.83203125,-4.923095703125,509.0,-470.0,289.0,-24.20765495300293,34.68107986450195,0.0,102.46232604980469,-106.14652252197266,66.0333480834961,-22.766433715820312,33.26408386230469,0.0
398,-3.92822265625,-2.834716796875,-4.9248046875,499.0,-504.0,301.0,-24.227052688598633,34.65611267089844,0.0,102.50041961669922,-106.18499755859375,66.05632781982422,-22.74903678894043,33.245361328125,0.0
403,-3.926513671875,-2.82958984375,-4.926513671875,509.0,-485.0,309.0,-24.187341690063477,34.649513244628906,0.0,102.53927612304688,-106.2220230102539,66.07991790771484,-22.730363845825195,33.228031158447266,0.0
408,-3.927490234375,-2.8291015625,-4.921875,487.0,-482.0,308.0,-24.19390869140625,34.67631149291992,0.0,102.57645416259766,-106.25881958007812,66.10343170166016,-22.71347999572754,33.21131896972656,0.0
413,-3.92431640625,-2.8349609375,-4.922607421875,499.0,-458.0,290.0,-24.243043899536133,34.637855529785156,0.0,102.61454772949219,-106.29378509521484,66.12557220458984,-22.69637107849121,33.195919036865234,0.0
418,-3.930419921875,-2.829833984375,-4.919189453125,508.0,-470.0,310.0,-24.20037269592285,34.7055778503418,0.0,102.65332794189453,-106.32966613769531,66.14923858642578,-22.678037643432617,33.18052291870117,0.0
423,-3.927734375,-2.829833984375,-4.921142578125,488.0,-484.0,300.0,-24.200881958007812,34.67925262451172,0.0,102.69058227539062,-106.36661529541016,66.1721420288086,-22.661256790161133,33.163726806640625,0.0
428,-3.92529296875,-2.832763671875,-4.93017578125,513.0,-486.0,296.0,-24.20420265197754,34.61875915527344,0.0,102.72974395751953,-106.40371704101562,66.19474029541016,-22.642656326293945,33.146018981933594,0.0
433,-3.932861328125,-2.83154296875,-4.9228515625,514.0,-477.0,315.0,-24.198392868041992,34.703208923339844,0.0,102.76898193359375,-106.44013214111328,66.21878814697266,-22.62394905090332,33.13011932373047,0.0
438,-3.935302734375,-2.830810546875,-4.9287109375,506.0,-488.0,295.0,-24.17212677001953,34.697593688964844,0.0,102.80760955810547,-106.47738647460938,66.2413101196289,-22.60555648803711,33.11333084106445,0.0
443,-3.923828125,-2.83544921875,-4.927490234375,530.0,-487.0,300.0,-24.234766006469727,34.613426208496094,0.0,102.84806823730469,-106.51456451416016,66.26421356201172,-22.586193084716797,33.095577239990234,0.0
448,-3.9287109375,-2.83203125,-4.92822265625,500.0,-482.0,311.0,-24.19661521911621,34.65178298950195,0.0,102.88623809814453,-106.55136108398438,66.28795623779297,-22.56866455078125,33.07872772216797,0.0
453,-3.92724609375,-2.83251953125,-4.9228515625,510.0,-467.0,298.0,-24.21769905090332,34.66260528564453,0.0,102.9251708984375,-106.5870132446289,66.31070709228516,-22.550678253173828,33.063175201416016,0.0
458,-3.925537109375,-2.834716796875,-4.9208984375,491.0,-497.0,273.0,-24.24315643310547,34.653751373291016,0.0,102.96265411376953,-106.62495422363281,66.33155059814453,-22.534475326538086,33.04526901245117,0.0
463,-3.9326171875,-2.834228515625,-4.93017578125,535.0,-488.0,303.0,-24.199766159057617,34.6652717590332,0.0,103.00349426269531,-106.6622085571289,66.35468292236328,-22.51443862915039,33.02822494506836,0.0
468,-3.929931640625,-2.8330078125,-4.92236328125,512.0,-468.0,274.0,-24.216991424560547,34.68177795410156,0.0,103.0425796508789,-106.69793701171875,66.37560272216797,-22.49641227722168,33.01292419433594,0.0
473,-3.926513671875,-2.83349609375,-4.922607421875,510.0,-482.0,337.0,-24.227293014526367,34.656307220458984,0.0,103.08151245117188,-106.73473358154297,66.40132904052734,-22.47869873046875,32.996273040771484,0.0
478,-3.9267578125,-2.83447265625,-4.927490234375,492.0,-473.0,330.0,-24.221166610717773,34.63571548461914,0.0,103.11907196044922,-106.77084350585938,66.42652130126953,-22.462305068969727,32.9800910949707,0.0
483,-3.92529296875,-2.83251953125,-4.920654296875,485.0,-462.0,310.0,-24.22769546508789,34.658260345458984,0.0,103.15609741210938,-106.80611419677734,66.45018768310547,-22.4465389251709,32.965030670166016,0.0
488,-3.9296875,-2.8330078125,-4.927490234375,484.0,-482.0,311.0,-24.20387840270996,34.659141540527344,0.0,103.19304656982422,-106.84291076660156,66.47393035888672,-22.430583953857422,32.948490142822266,0.0
493,-3.925048828125,-2.833984375,-4.924560546875,495.0,-484.0,322.0,-24.228897094726562,34.63717269897461,0.0,103.2308349609375,-106.8798599243164,66.4985122680664,-22.41411018371582,32.931575775146484,0.0
499,-3.9287109375,-2.8369140625,-4.927001953125,511.0,-479.0,325.0,-24.236785888671875,34.645294189453125,0.0,103.26984405517578,-106.91642761230469,66.52332305908203,-22.39654541015625,32.9151725769043,0.0
504,-3.929931640625,-2.83203125,-4.9267578125,476.0,-486.0,313.0,-24.197921752929688,34.666099548339844,0.0,103.31344604492188,-106.96094512939453,66.55199432373047,-22.374065399169922,32.891212463378906,0.0
509,-3.928955078125,-2.8310546875,-4.9287109375,500.0,-471.0,311.0,-24.187414169311523,34.65374755859375,0.0,103.35161590576172,-106.99690246582031,66.57573699951172,-22.356937408447266,32.875694274902344,0.0
514,-3.927001953125,-2.8330078125,-4.9267578125,483.0,-480.0,329.0,-24.211519241333008,34.64381790161133,0.0,103.38848876953125,-107.0335464477539,66.6008529663086,-22.341400146484375,32.85940933227539,0.0
519,-3.92529296875,-2.831298828125,-4.92578125,499.0,-474.0,317.0,-24.204811096191406,34.64016342163086,0.0,103.42658233642578,-107.06973266601562,66.62505340576172,-22.324600219726562,32.843570709228516,0.0
524,-3.927978515625,-2.83251953125,-4.926025390625,481.0,-464.0,318.0,-24.20770263671875,34.654624938964844,0.0,103.46330261230469,-107.10515594482422,66.64933013916016,-22.309223175048828,32.828678131103516,0.0
529,-3.92822265625,-2.830810546875,-4.9267578125,492.0,-453.0,300.0,-24.19230842590332,34.657310485839844,0.0,103.50086212158203,-107.13973236083984,66.67223358154297,-22.292865753173828,32.81466293334961,0.0
534,-3.927734375,-2.826416015625,-4.92626953125,511.0,-469.0,303.0,-24.161380767822266,34.666297912597656,0.0,103.53987121582031,-107.175537109375,66.69536590576172,-22.27476692199707,32.7995491027832,0.0
539,-3.926513671875,-2.83154296875,-4.925537109375,491.0,-462.0,293.0,-24.20471954345703,34.648921966552734,0.0,103.57735443115234,-107.21080780029297,66.71773529052734,-22.25870132446289,32.78479766845703,0.0
544,-3.92578125,-2.82861328125,-4.925048828125,494.0,-468.0,313.0,-24.185396194458008,34.652801513671875,0.0,103.61506652832031,-107.24653625488281,66.74163055419922,-22.242229461669922,32.7696533203125,0.0
549,-3.928466796875,-2.8310546875,-4.922119140625,497.0,-481.0,286.0,-24.205970764160156,34.6773796081543,0.0,103.65300750732422,-107.28325653076172,66.76346588134766,-22.225786209106445,32.75381851196289,0.0
554,-3.93017578125,-2.832763671875,-4.927978515625,514.0,-477.0,313.0,-24.19969940185547,34.661048889160156,0.0,103.69224548339844,-107.31967163085938,66.78736114501953,-22.20802879333496,32.73814392089844,0.0
559,-3.930419921875,-2.83154296875,-4.924072265625,508.0,-497.0,316.0,-24.200328826904297,34.68156433105469,0.0,103.73102569580078,-107.35761260986328,66.81148529052734,-22.190778732299805,32.72120666503906,0.0
564,-3.932861328125,-2.83251953125,-4.9228515625,480.0,-485.0,295.0,-24.205780029296875,34.70090866088867,0.0,103.76766967773438,-107.39463806152344,66.8340072631836,-22.175745010375977,32.70542526245117,0.0
569,-3.92822265625,-2.83203125,-4.92041015625,498.0,-489.0,324.0,-24.218425750732422,34.6804084777832,0.0,103.8056869506836,-107.43196868896484,66.8587417602539,-22.15950584411621,32.68915939331055,0.0
574,-3.931640625,-2.832275390625,-4.921875,514.0,-454.0,305.0,-24.20911979675293,34.6971549987793,0.0,103.84492492675781,-107.46662139892578,66.88202667236328,-22.141996383666992,32.67574691772461,0.0
579,-3.930419921875,-2.8369140625,-4.92333984375,518.0,-479.0,295.0,-24.242902755737305,34.671913146972656,0.0,103.88446807861328,-107.50318908691406,66.90454864501953,-22.124582290649414,32.660194396972656,0.0
584,-3.92919921875,-2.828857421875,-4.92138671875,503.0,-472.0,308.0,-24.18973159790039,34.690547943115234,0.0,103.92286682128906,-107.53922271728516,66.92806243896484,-22.107799530029297,32.6453971862793,0.0
589,-3.928955078125,-2.832275390625,-4.920166015625,490.0,-489.0,295.0,-24.21936798095703,34.685829162597656,0.0,103.96027374267578,-107.57655334472656,66.9505844116211,-22.092344284057617,32.62929153442383,0.0
594,-3.92822265625,-2.83349609375,-4.929443359375,507.0,-480.0,294.0,-24.205482482910156,34.64002227783203,0.0,103.99897766113281,-107.61319732666016,66.97303009033203,-22.07549285888672,32.613441467285156,0.0
599,-3.926025390625,-2.83251953125,-4.921875,502.0,-490.0,301.0,-24.222890853881836,34.65826416015625,0.0,104.03730010986328,-107.65060424804688,66.99600982666016,-22.05923843383789,32.59706115722656,0.0
604,-3.926513671875,-2.83154296875,-4.924560546875,505.0,-477.0,294.0,-24.207317352294922,34.65291213989258,0.0,104.07585144042969,-107.68701934814453,67.0184555053711,-22.042638778686523,32.5816535949707,0.0
609,-3.9287109375,-2.833984375,-4.92626953125,499.0,-497.0,333.0,-24.21657943725586,34.65517807006836,0.0,104.11394500732422,-107.72496032714844,67.04387664794922,-22.026628494262695,32.56479263305664,0.0
614,-3.931640625,-2.8369140625,-4.9287109375,486.0,-485.0,301.0,-24.22602653503418,34.65829086303711,0.0,104.15104675292969,-107.7619857788086,67.06685638427734,-22.011730194091797,32.548919677734375,0.0
619,-3.9326171875,-2.8330078125,-4.9228515625,510.0,-504.0,327.0,-24.209991455078125,34.69809341430664,0.0,104.18997955322266,-107.80046081542969,67.0918197631836,-21.994888305664062,32.53204345703125,0.0
624,-3.92724609375,-2.8330078125,-4.923583984375,509.0,-482.0,317.0,-24.219444274902344,34.6584587097168,0.0,104.22883605957031,-107.8372573852539,67.11602020263672,-21.978261947631836,32.51649475097656,0.0
629,-3.92724609375,-2.835693359375,-4.924072265625,481.0,-477.0,318.0,-24.238460540771484,34.650142669677734,0.0,104.26555633544922,-107.87367248535156,67.14029693603516,-21.96398162841797,32.50128173828125,0.0
635,-3.931884765625,-2.826904296875,-4.92578125,477.0,-467.0,300.0,-24.15758514404297,34.695465087890625,0.0,104.30197143554688,-107.9093246459961,67.16320037841797,-21.94923973083496,32.487300872802734,0.0
640,-3.92578125,-2.834716796875,-4.92626953125,509.0,-477.0,295.0,-24.228334426879883,34.63346481323242,0.0,104.34859466552734,-107.95301818847656,67.19022369384766,-21.925142288208008,32.464820861816406,0.0
645,-3.923095703125,-2.83056640625,-4.932373046875,503.0,-493.0,307.0,-24.18638801574707,34.59994125366211,0.0,104.38699340820312,-107.99065399169922,67.21366119384766,-21.90890884399414,32.44812774658203,0.0
650,-3.923828125,-2.8330078125,-4.927978515625,496.0,-464.0,292.0,-24.214998245239258,34.617164611816406,0.0,104.42485809326172,-108.02607727050781,67.23595428466797,-21.893522262573242,32.43384552001953,0.0
655,-3.927734375,-2.83203125,-4.92724609375,488.0,-461.0,293.0,-24.20128059387207,34.649112701416016,0.0,104.46211242675781,-108.06127166748047,67.2583236694336,-21.878644943237305,32.420127868652344,0.0
660,-3.92333984375,-2.83447265625,-4.93017578125,487.0,-475.0,289.0,-24.221263885498047,34.60142135620117,0.0,104.4992904663086,-108.0975341796875,67.28038787841797,-21.864065170288086,32.40492630004883,0.0
665,-3.932373046875,-2.8291015625,-4.91748046875,490.0,-478.0,303.0,-24.195220947265625,34.727630615234375,0.0,104.53669738769531,-108.13402557373047,67.30352020263672,-21.849040985107422,32.39073181152344,0.0
670,-3.928955078125,-2.830078125,-4.923583984375,504.0,-486.0,285.0,-24.193649291992188,34.6770133972168,0.0,104.5751724243164,-108.17112731933594,67.32527923583984,-21.832979202270508,32.375484466552734,0.0
675,-3.926513671875,-2.835693359375,-4.925537109375,488.0,-479.0,319.0,-24.236116409301758,34.63916015625,0.0,104.6124267578125,-108.20769500732422,67.3496322631836,-21.81856918334961,32.360450744628906,0.0
680,-3.928466796875,-2.833740234375,-4.92431640625,491.0,-485.0,316.0,-24.220447540283203,34.662071228027344,0.0,104.64990997314453,-108.24472045898438,67.3737564086914,-21.803815841674805,32.345218658447266,0.0
685,-3.923828125,-2.83154296875,-4.923828125,501.0,-486.0,305.0,-24.214962005615234,34.6375732421875,0.0,104.68815612792969,-108.28182220458984,67.39704132080078,-21.78829002380371,32.32972717285156,0.0
690,-3.928466796875,-2.834716796875,-4.92236328125,494.0,-495.0,328.0,-24.233030319213867,34.66775894165039,0.0,104.72586822509766,-108.31961059570312,67.42208099365234,-21.773500442504883,32.313880920410156,0.0
695,-3.93212890625,-2.831298828125,-4.93017578125,503.0,-449.0,288.0,-24.178651809692383,34.668827056884766,0.0,104.76426696777344,-108.3538818359375,67.4440689086914,-21.757566452026367,32.30156707763672,0.0
700,-3.926025390625,-2.832275390625,-4.927734375,493.0,-497.0,295.0,-24.2054500579834,34.63488006591797,0.0,104.8019027709961,-108.3918228149414,67.46659088134766,-21.7426815032959,32.28533172607422,0.0
705,-3.929443359375,-2.8330078125,-4.92431640625,506.0,-463.0,284.0,-24.212833404541016,34.67045593261719,0.0,104.84053039550781,-108.42716979980469,67.48827362060547,-21.726917266845703,32.27204513549805,0.0
710,-3.933349609375,-2.83203125,-4.925537109375,488.0,-478.0,266.0,-24.193918228149414,34.69439697265625,0.0,104.8777847290039,-108.46366119384766,67.50857543945312,-21.71238899230957,32.257869720458984,0.0
715,-3.924560546875,-2.832763671875,-4.921142578125,500.0,-473.0,292.0,-24.229799270629883,34.65068435668945,0.0,104.91595458984375,-108.49977111816406,67.53086853027344,-21.69731330871582,32.24371337890625,0.0
720,-3.92724609375,-2.83251953125,-4.924560546875,498.0,-490.0,320.0,-24.213151931762695,34.655616760253906,0.0,104.95397186279297,-108.53717803955078,67.5552978515625,-21.682279586791992,32.22835159301758,0.0
725,-3.925048828125,-2.833740234375,-4.928955078125,496.0,-493.0,313.0,-24.21535301208496,34.619789123535156,0.0,104.99183654785156,-108.57481384277344,67.57919311523438,-21.66745948791504,32.21249008178711,0.0
730,-3.926513671875,-2.83447265625,-4.920166015625,492.0,-486.0,311.0,-24.24118423461914,34.66399002075195,0.0,105.0293960571289,-108.6119155883789,67.60293579101562,-21.65321159362793,32.19760513305664,0.0
735,-3.929931640625,-2.83251953125,-4.9248046875,505.0,-485.0,320.0,-24.206806182861328,34.67293930053711,0.0,105.06794738769531,-108.64894104003906,67.62736511230469,-21.63770866394043,32.18292236328125,0.0
740,-3.92822265625,-2.833984375,-4.9248046875,493.0,-502.0,295.0,-24.221513748168945,34.6578369140625,0.0,105.10558319091797,-108.68726348876953,67.64988708496094,-21.623291015625,32.1668586730957,0.0
745,-3.92626953125,-2.833984375,-4.9267578125,489.0,-476.0,335.0,-24.220458984375,34.63652420043945,0.0,105.14291381835938,-108.72360229492188,67.67546081542969,-21.60920524597168,32.15263366699219,0.0
750,-3.9306640625,-2.8330078125,-4.91748046875,486.0,-482.0,300.0,-24.228422164916992,34.706756591796875,0.0,105.18001556396484,-108.7603988647461,67.6983642578125,-21.59545135498047,32.13861083984375,0.0
755,-3.92822265625,-2.830810546875,-4.923828125,490.0,-483.0,298.0,-24.200098037719727,34.66929626464844,0.0,105.21742248535156,-108.79727172851562,67.72111511230469,-21.581180572509766,32.12422180175781,0.0
760,-3.925537109375,-2.833984375,-4.92529296875,494.0,-481.0,298.0,-24.22591209411621,34.63751220703125,0.0,105.25513458251953,-108.83399200439453,67.74386596679688,-21.566871643066406,32.1097526550293,0.0
765,-3.931396484375,-2.829833984375,-4.927001953125,504.0,-463.0,304.0,-24.177547454833984,34.68025207519531,0.0,105.29360961914062,-108.86933898925781,67.76707458496094,-21.551424026489258,32.0970573425293,0.0
771,-3.92919921875,-2.83251953125,-4.923095703125,493.0,-474.0,329.0,-24.21290397644043,34.67493438720703,0.0,105.33124542236328,-108.90552520751953,67.79219055175781,-21.537166595458984,32.08351516723633,0.0
776,-3.928466796875,-2.829345703125,-4.919677734375,505.0,-448.0,313.0,-24.199525833129883,34.69139862060547,0.0,105.37750244140625,-108.94656372070312,67.82086181640625,-21.51433563232422,32.06538772583008,0.0
781,-3.92626953125,-2.83203125,-4.922119140625,516.0,-485.0,317.0,-24.21802520751953,34.66008377075195,0.0,105.4168930053711,-108.98358917236328,67.84506225585938,-21.49858856201172,32.051048278808594,0.0
786,-3.92431640625,-2.82958984375,-4.927001953125,497.0,-438.0,301.0,-24.190698623657227,34.63251876831055,0.0,105.454833984375,-109.01702117919922,67.8680419921875,-21.48409652709961,32.040069580078125,0.0
791,-3.9248046875,-2.830322265625,-4.91943359375,496.0,-487.0,290.0,-24.215347290039062,34.665096282958984,0.0,105.4926986694336,-109.05419921875,67.89018249511719,-21.46993637084961,32.02568054199219,0.0
796,-3.926513671875,-2.83349609375,-4.922607421875,510.0,-468.0,295.0,-24.227293014526367,34.656307220458984,0.0,105.53163146972656,-109.08992767333984,67.91270446777344,-21.454858779907227,32.012699127197266,0.0
801,-3.92431640625,-2.833740234375,-4.927490234375,508.0,-473.0,292.0,-24.22080421447754,34.62077331542969,0.0,105.5704116821289,-109.12603759765625,67.93499755859375,-21.439926147460938,31.999073028564453,0.0
806,-3.92529296875,-2.8359375,-4.929443359375,511.0,-491.0,290.0,-24.230152130126953,34.61429977416992,0.0,105.60942077636719,-109.16352081298828,67.95713806152344,-21.424894332885742,31.98406982421875,0.0
811,-3.930419921875,-2.829345703125,-4.91943359375,486.0,-509.0,308.0,-24.196027755737305,34.705726623535156,0.0,105.64652252197266,-109.20237731933594,67.98065185546875,-21.411514282226562,31.96853256225586,0.0
816,-3.931884765625,-2.83056640625,-4.92041015625,487.0,-472.0,298.0,-24.199562072753906,34.70884323120117,0.0,105.68370056152344,-109.23841094970703,68.00340270996094,-21.39812469482422,31.95587730407715,0.0
821,-3.92431640625,-2.8310546875,-4.9248046875,520.0,-456.0,277.0,-24.207632064819336,34.6380615234375,0.0,105.72339630126953,-109.27322387695312,68.02455139160156,-21.382343292236328,31.943870544433594,0.0
826,-3.928955078125,-2.83056640625,-4.923828125,481.0,-474.0,316.0,-24.196697235107422,34.67486572265625,0.0,105.76011657714844,-109.30941009521484,68.04867553710938,-21.369478225708008,31.93083953857422,0.0
831,-3.9248046875,-2.831787109375,-4.922607421875,527.0,-449.0,295.0,-24.217988967895508,34.648658752441406,0.0,105.80034637451172,-109.34368133544922,68.07119750976562,-21.353343963623047,31.919519424438477,0.0
836,-3.924560546875,-2.827880859375,-4.9208984375,501.0,-493.0,331.0,-24.1934757232666,34.663177490234375,0.0,105.83859252929688,-109.38131713867188,68.09646606445312,-21.339035034179688,31.905014038085938,0.0
841,-3.928466796875,-2.832275390625,-4.92626953125,496.0,-483.0,301.0,-24.20417022705078,34.657527923583984,0.0,105.87645721435547,-109.4181900024414,68.11944580078125,-21.325241088867188,31.89126968383789,0.0
846,-3.926025390625,-2.829833984375,-4.929443359375,508.0,-500.0,306.0,-24.182435989379883,34.633628845214844,0.0,105.91523742675781,-109.45635986328125,68.14280700683594,-21.310401916503906,31.876087188720703,0.0
851,-3.9296875,-2.829833984375,-4.91796875,514.0,-496.0,317.0,-24.20517349243164,34.7055778503418,0.0,105.95447540283203,-109.49422454833984,68.16700744628906,-21.29534912109375,31.861858367919922,0.0
856,-3.929443359375,-2.834228515625,-4.9228515625,486.0,-490.0,313.0,-24.225963592529297,34.6735725402832,0.0,105.9915771484375,-109.53163146972656,68.19090270996094,-21.28264045715332,31.847869873046875,0.0
861,-3.925537109375,-2.83251953125,-4.917724609375,511.0,-483.0,300.0,-24.2349796295166,34.671913146972656,0.0,106.03058624267578,-109.5685043334961,68.21380615234375,-21.26814842224121,31.83444595336914,0.0
866,-3.928466796875,-2.83349609375,-4.923583984375,516.0,-480.0,312.0,-24.220548629760742,34.66564178466797,0.0,106.06997680664062,-109.60514831542969,68.23762512207031,-21.253210067749023,31.82124137878418,0.0
871,-3.927734375,-2.832763671875,-4.9287109375,493.0,-468.0,330.0,-24.202926635742188,34.64140701293945,0.0,106.10761260986328,-109.64087677001953,68.2628173828125,-21.23992347717285,31.808792114257812,0.0
876,-3.9267578125,-2.833984375,-4.92529296875,488.0,-459.0,304.0,-24.22332191467285,34.645843505859375,0.0,106.14486694335938,-109.67591857910156,68.28602600097656,-21.227222442626953,31.79709815979004,0.0
881,-3.927490234375,-2.834228515625,-4.9345703125,473.0,-473.0,317.0,-24.198944091796875,34.61237335205078,0.0,106.18097686767578,-109.71202850341797,68.31022644042969,-21.215497970581055,31.78410530090332,0.0
886,-3.925537109375,-2.836181640625,-4.9228515625,495.0,-484.0,303.0,-24.249034881591797,34.64231872558594,0.0,106.21876525878906,-109.74897766113281,68.33335876464844,-21.20254135131836,31.77056312561035,0.0
891,-3.924072265625,-2.8369140625,-4.928955078125,496.0,-498.0,289.0,-24.241426467895508,34.60566711425781,0.0,106.25662994384766,-109.78699493408203,68.35542297363281,-21.18948745727539,31.755714416503906,0.0
896,-3.92822265625,-2.8310546875,-4.924560546875,491.0,-490.0,319.0,-24.199996948242188,34.66572570800781,0.0,106.29411315917969,-109.82440185546875,68.37977600097656,-21.1765193939209,31.742013931274414,0.0
901,-3.930419921875,-2.831298828125,-4.923828125,480.0,-473.0,288.0,-24.19913101196289,34.683135986328125,0.0,106.33075714111328,-109.86051177978516,68.40176391601562,-21.164419174194336,31.72979164123535,0.0
907,-3.92529296875,-2.833251953125,-4.931884765625,492.0,-498.0,289.0,-24.203350067138672,34.61063766479492,0.0,106.36831665039062,-109.89852905273438,68.423828125,-21.151479721069336,31.715133666992188,0.0
912,-3.92919921875,-2.831787109375,-4.923828125,478.0,-489.0,322.0,-24.205415725708008,34.67366027832031,0.0,106.41210174560547,-109.94332122802734,68.45332336425781,-21.132478713989258,31.69437026977539,0.0
917,-3.925048828125,-2.830810546875,-4.92236328125,502.0,-494.0,296.0,-24.21072769165039,34.653621673583984,0.0,106.45042419433594,-109.98103332519531,68.47592163085938,-21.119033813476562,31.68058204650879,0.0
922,-3.92724609375,-2.8291015625,-4.925048828125,505.0,-462.0,306.0,-24.185989379882812,34.66165542602539,0.0,106.48897552490234,-110.01630401611328,68.49928283691406,-21.10521125793457,31.66933250427246,0.0
927,-3.92822265625,-2.834716796875,-4.921630859375,490.0,-469.0,319.0,-24.235498428344727,34.66908645629883,0.0,106.52638244628906,-110.05210876464844,68.52363586425781,-21.092967987060547,31.657644271850586,0.0
932,-3.9287109375,-2.8330078125,-4.925537109375,502.0,-463.0,316.0,-24.21114158630371,34.66046905517578,0.0,106.56470489501953,-110.08745574951172,68.54776000976562,-21.079660415649414,31.64637565612793,0.0
937,-3.9296875,-2.830078125,-4.921630859375,505.0,-451.0,278.0,-24.19728660583496,34.690006256103516,0.0,106.60325622558594,-110.12187957763672,68.56898498535156,-21.066062927246094,31.636281967163086,0.0
942,-3.92431640625,-2.8330078125,-4.92822265625,514.0,-482.0,302.0,-24.213314056396484,34.619503021240234,0.0,106.64249420166016,-110.15867614746094,68.592041015625,-21.051959991455078,31.623308181762695,0.0
947,-3.927490234375,-2.832275390625,-4.931396484375,477.0,-491.0,306.0,-24.192611694335938,34.629913330078125,0.0,106.67890930175781,-110.19615936279297,68.61540222167969,-21.040550231933594,31.609783172607422,0.0
952,-3.929443359375,-2.830322265625,-4.92041015625,516.0,-503.0,289.0,-24.202898025512695,34.69276428222656,0.0,106.71829986572266,-110.23455810546875,68.63746643066406,-21.02630043029785,31.595895767211914,0.0
957,-3.9296875,-2.829345703125,-4.925537109375,506.0,-504.0,304.0,-24.181365966796875,34.67573928833008,0.0,106.75692749023438,-110.27303314208984,68.66067504882812,-21.0126953125,31.581851959228516,0.0
962,-3.928466796875,-2.83447265625,-4.925537109375,496.0,-491.0,311.0,-24.222740173339844,34.655357360839844,0.0,106.79479217529297,-110.31051635742188,68.68441772460938,-21.00022315979004,31.568689346313477,0.0
967,-3.9306640625,-2.833984375,-4.92431640625,478.0,-471.0,288.0,-24.21763038635254,34.676483154296875,0.0,106.83128356933594,-110.34647369384766,68.70640563964844,-20.98911476135254,31.55725860595703,0.0
972,-3.92724609375,-2.836181640625,-4.92822265625,501.0,-482.0,309.0,-24.23110580444336,34.63203811645508,0.0,106.8695297241211,-110.38327026367188,68.72999572753906,-20.976402282714844,31.5446834564209,0.0
977,-3.92578125,-2.834716796875,-4.93212890625,501.0,-471.0,293.0,-24.21274185180664,34.609535217285156,0.0,106.90777587890625,-110.41922760009766,68.75236511230469,-20.963592529296875,31.53281593322754,0.0
982,-3.928955078125,-2.828369140625,-4.923095703125,496.0,-485.0,315.0,-24.182010650634766,34.68303298950195,0.0,106.94564056396484,-110.45625305175781,68.77641296386719,-20.950969696044922,31.520498275756836,0.0
987,-3.927001953125,-2.83837890625,-4.927001953125,509.0,-479.0,314.0,-24.25148582458496,34.630191802978516,0.0,106.9844970703125,-110.4928207397461,68.80038452148438,-20.937946319580078,31.508270263671875,0.0
992,-3.9287109375,-2.8330078125,-4.931396484375,482.0,-486.0,330.0,-24.195566177368164,34.63652038574219,0.0,107.02129364013672,-110.52992248535156,68.82557678222656,-20.926584243774414,31.49560546875,0.0
997,-3.927734375,-2.833984375,-4.92626953125,498.0,-478.0,315.0,-24.218650817871094,34.64851379394531,0.0,107.05931091308594,-110.56641387939453,68.84962463378906,-20.91422462463379,31.483688354492188,0.0
1002,-3.927734375,-2.832763671875,-4.9267578125,517.0,-499.0,314.0,-24.208118438720703,34.64938735961914,0.0,107.0987777709961,-110.60450744628906,68.87359619140625,-20.900390625,31.470232009887695,0.0
1007,-3.925537109375,-2.834716796875,-4.927490234375,479.0,-474.0,284.0,-24.225603103637695,34.62681198120117,0.0,107.13534545898438,-110.64069366455078,68.89527893066406,-20.889623641967773,31.45855140686035,0.0
1012,-3.93408203125,-2.830322265625,-4.9267578125,500.0,-486.0,296.0,-24.176198959350586,34.69841384887695,0.0,107.17351531982422,-110.67779541015625,68.91787719726562,-20.876922607421875,31.446552276611328,0.0
1017,-3.92578125,-2.835205078125,-4.932861328125,494.0,-460.0,310.0,-24.21448516845703,34.60540008544922,0.0,107.21122741699219,-110.7129135131836,68.94154357910156,-20.86501693725586,31.435855865478516,0.0
1022,-3.926513671875,-2.831298828125,-4.923828125,515.0,-451.0,323.0,-24.20741844177246,34.6564826965332,0.0,107.25054168701172,-110.7473373413086,68.96620178222656,-20.851511001586914,31.426267623901367,0.0
1027,-3.928466796875,-2.830810546875,-4.923095703125,517.0,-456.0,296.0,-24.201526641845703,34.67395782470703,0.0,107.29000854492188,-110.78215026855469,68.98880004882812,-20.83786392211914,31.416461944580078,0.0
1032,-3.92578125,-2.83349609375,-4.923828125,493.0,-450.0,331.0,-24.22559928894043,34.64631271362305,0.0,107.32764434814453,-110.81649780273438,69.01406860351562,-20.82627296447754,31.40692901611328,0.0
1037,-3.930908203125,-2.82958984375,-4.930419921875,499.0,-502.0,319.0,-24.16766357421875,34.663516998291016,0.0,107.36573791503906,-110.85482025146484,69.03842163085938,-20.81382942199707,31.39361572265625,0.0
1043,-3.927001953125,-2.833740234375,-4.9228515625,512.0,-486.0,322.0,-24.227453231811523,34.65806579589844,0.0,107.40482330322266,-110.89192199707031,69.06300354003906,-20.800905227661133,31.381528854370117,0.0
1048,-3.926513671875,-2.830078125,-4.926025390625,507.0,-500.0,303.0,-24.192337036132812,34.650367736816406,0.0,107.45126342773438,-110.9377212524414,69.09075927734375,-20.78053092956543,31.36086082458496,0.0
1053,-3.93310546875,-2.82958984375,-4.92236328125,504.0,-515.0,300.0,-24.18439483642578,34.71147155761719,0.0,107.48973846435547,-110.97703552246094,69.11366271972656,-20.768112182617188,31.347206115722656,0.0
1058,-3.928955078125,-2.832763671875,-4.92724609375,494.0,-494.0,282.0,-24.204233169555664,34.65571975708008,0.0,107.52745056152344,-111.0147476196289,69.13519287109375,-20.756650924682617,31.334779739379883,0.0
1063,-3.930908203125,-2.830078125,-4.926025390625,481.0,-478.0,274.0,-24.18302345275879,34.68034744262695,0.0,107.56417083740234,-111.05123901367188,69.15611267089844,-20.746055603027344,31.323801040649414,0.0
1068,-3.93017578125,-2.831298828125,-4.928955078125,477.0,-473.0,284.0,-24.18602752685547,34.660499572753906,0.0,107.6005859375,-111.08734893798828,69.17779541015625,-20.735822677612305,31.313093185424805,0.0
1073,-3.923828125,-2.834716796875,-4.922607421875,490.0,-449.0,310.0,-24.242233276367188,34.63509750366211,0.0,107.63799285888672,-111.12162017822266,69.20146179199219,-20.725059509277344,31.30405044555664,0.0
1078,-3.925537109375,-2.831787109375,-4.933349609375,483.0,-466.0,320.0,-24.187862396240234,34.60975646972656,0.0,107.67486572265625,-111.15719604492188,69.22589111328125,-20.714454650878906,31.293556213378906,0.0
1083,-3.926513671875,-2.83251953125,-4.93017578125,495.0,-449.0,310.0,-24.199769973754883,34.62766647338867,0.0,107.71265411376953,-111.19146728515625,69.24955749511719,-20.703067779541016,31.284521102905273,0.0
1088,-3.9248046875,-2.836181640625,-4.935302734375,513.0,-454.0,299.0,-24.217437744140625,34.58648681640625,0.0,107.75181579589844,-111.22611999511719,69.27238464355469,-20.690492630004883,31.27482795715332,0.0
1093,-3.927001953125,-2.835205078125,-4.926025390625,502.0,-469.0,318.0,-24.230087280273438,34.64164733886719,0.0,107.7901382446289,-111.26192474365234,69.29666137695312,-20.678897857666016,31.26444435119629,0.0
1098,-3.928466796875,-2.830078125,-4.919677734375,495.0,-525.0,316.0,-24.20507049560547,34.689674377441406,0.0,107.82792663574219,-111.302001953125,69.32078552246094,-20.667692184448242,31.250211715698242,0.0
1103,-3.93017578125,-2.835693359375,-4.925048828125,492.0,-498.0,334.0,-24.229642868041992,34.6661376953125,0.0,107.86548614501953,-111.34001922607422,69.34628295898438,-20.656938552856445,31.237916946411133,0.0
1108,-3.927734375,-2.836669921875,-4.927734375,510.0,-490.0,315.0,-24.235061645507812,34.63621520996094,0.0,107.9044189453125,-111.37742614746094,69.37033081054688,-20.644901275634766,31.226057052612305,0.0
1113,-3.932861328125,-2.834716796875,-4.92333984375,500.0,-485.0,329.0,-24.221101760864258,34.6937370300293,0.0,107.94258880615234,-111.4144515991211,69.39544677734375,-20.633567810058594,31.21505355834961,0.0
1118,-3.92822265625,-2.833984375,-4.935546875,491.0,-470.0,317.0,-24.192955017089844,34.61395263671875,0.0,107.98007202148438,-111.45033264160156,69.41964721679688,-20.622751235961914,31.204639434814453,0.0
1123,-3.92431640625,-2.83251953125,-4.927978515625,495.0,-467.0,316.0,-24.210269927978516,34.621646881103516,0.0,108.01786041259766,-111.4859848022461,69.44377136230469,-20.611801147460938,31.194549560546875,0.0
1128,-3.927978515625,-2.829833984375,-4.922607421875,492.0,-442.0,294.0,-24.196470260620117,34.674922943115234,0.0,108.055419921875,-111.51972198486328,69.46621704101562,-20.60101890563965,31.186784744262695,0.0
1133,-3.924560546875,-2.83154296875,-4.928955078125,520.0,-471.0,324.0,-24.199766159057617,34.62161636352539,0.0,108.0951156616211,-111.55567932128906,69.49095153808594,-20.58818244934082,31.176450729370117,0.0
1138,-3.925537109375,-2.836181640625,-4.920166015625,510.0,-467.0,323.0,-24.25619125366211,34.653297424316406,0.0,108.13404846191406,-111.5913314819336,69.51560974121094,-20.576576232910156,31.16669464111328,0.0
1143,-3.9287109375,-2.83251953125,-4.924072265625,493.0,-472.0,302.0,-24.21134376525879,34.667606353759766,0.0,108.17168426513672,-111.62736511230469,69.53866577148438,-20.565975189208984,31.156700134277344,0.0
1148,-3.92626953125,-2.831298828125,-4.921142578125,484.0,-515.0,316.0,-24.21508026123047,34.66580581665039,0.0,108.20863342285156,-111.66667938232422,69.56278991699219,-20.556123733520508,31.14347267150879,0.0
1153,-3.923828125,-2.8330078125,-4.92822265625,484.0,-484.0,302.0,-24.21434783935547,34.61616897583008,0.0,108.2455825805664,-111.70362854003906,69.58584594726562,-20.54630470275879,31.13228988647461,0.0
1158,-3.933349609375,-2.830078125,-4.922607421875,497.0,-507.0,317.0,-24.186922073364258,34.71098709106445,0.0,108.28352355957031,-111.7423324584961,69.61004638671875,-20.535335540771484,31.12010955810547,0.0
1163,-3.926513671875,-2.8330078125,-4.927734375,493.0,-478.0,296.0,-24.2099552154541,34.63649368286133,0.0,108.32115936279297,-111.77882385253906,69.63264465332031,-20.524883270263672,31.109634399414062,0.0
1168,-3.928955078125,-2.830810546875,-4.925537109375,494.0,-484.0,288.0,-24.194002151489258,34.667301177978516,0.0,108.35887145996094,-111.8157730102539,69.65463256835938,-20.514280319213867,31.09897232055664,0.0
1173,-3.935302734375,-2.833740234375,-4.923095703125,518.0,-468.0,304.0,-24.20918083190918,34.713680267333984,0.0,108.3984146118164,-111.85150146484375,69.67784118652344,-20.502012252807617,31.089908599853516,0.0
1179,-3.9248046875,-2.833251953125,-4.924560546875,483.0,-445.0,282.0,-24.223875045776367,34.63722610473633,0.0,108.43528747558594,-111.88546752929688,69.69937133789062,-20.492557525634766,31.082061767578125,0.0
1184,-3.92626953125,-2.8271484375,-4.9208984375,499.0,-430.0,314.0,-24.184303283691406,34.67657470703125,0.0,108.48099517822266,-111.92485809326172,69.72813415527344,-20.47414779663086,31.069215774536133,0.0
1189,-3.927490234375,-2.833984375,-4.925048828125,512.0,-483.0,293.0,-24.2224178314209,34.65184020996094,0.0,108.52008056640625,-111.96173095703125,69.75050354003906,-20.46269416809082,31.05875015258789,0.0
1194,-3.923828125,-2.831298828125,-4.927978515625,487.0,-479.0,315.0,-24.202068328857422,34.621177673339844,0.0,108.55725860595703,-111.99829864501953,69.77455139160156,-20.453035354614258,31.04840660095215,0.0
1199,-3.929443359375,-2.831787109375,-4.92236328125,498.0,-507.0,319.0,-24.208791732788086,34.68132019042969,0.0,108.59527587890625,-112.03700256347656,69.79890441894531,-20.442628860473633,31.03642463684082,0.0
1204,-3.9326171875,-2.835205078125,-4.922607421875,495.0,-497.0,328.0,-24.227258682250977,34.69392013549805,0.0,108.63306427001953,-112.07494354248047,69.82394409179688,-20.43262481689453,31.025346755981445,0.0
1209,-3.92626953125,-2.836181640625,-4.9267578125,514.0,-489.0,286.0,-24.237075805664062,34.6313591003418,0.0,108.67230224609375,-112.11227416992188,69.84577941894531,-20.421293258666992,31.014469146728516,0.0
1214,-3.929931640625,-2.834716796875,-4.92529296875,505.0,-499.0,303.0,-24.22212791442871,34.665775299072266,0.0,108.71085357666016,-112.1503677368164,69.86891174316406,-20.410585403442383,31.003129959106445,0.0
1219,-3.927978515625,-2.831787109375,-4.92431640625,487.0,-491.0,291.0,-24.206707000732422,34.663333892822266,0.0,108.74803161621094,-112.18785095214844,69.89112854003906,-20.401174545288086,30.992431640625,0.0
1224,-3.92626953125,-2.835693359375,-4.927490234375,525.0,-473.0,299.0,-24.231433868408203,34.629512786865234,0.0,108.7881088256836,-112.22396087646484,69.91395568847656,-20.389097213745117,30.982900619506836,0.0
1229,-3.9287109375,-2.832275390625,-4.92724609375,510.0,-449.0,282.0,-24.20105743408203,34.65520095825195,0.0,108.82704162597656,-112.25823211669922,69.93548583984375,-20.377994537353516,30.97541046142578,0.0
1234,-3.9287109375,-2.83251953125,-4.9189453125,500.0,-448.0,298.0,-24.2249813079834,34.6885871887207,0.0,108.8652114868164,-112.29242706298828,69.95823669433594,-20.36787223815918,30.96826171875,0.0
1239,-3.9287109375,-2.83349609375,-4.92431640625,507.0,-461.0,284.0,-24.218082427978516,34.664310455322266,0.0,108.90391540527344,-112.32762145996094,69.97991943359375,-20.35721206665039,30.959976196289062,0.0
1244,-3.928955078125,-2.831298828125,-4.920654296875,513.0,-467.0,313.0,-24.210678100585938,34.68613052368164,0.0,108.94307708740234,-112.36327362060547,70.00381469726562,-20.34609031677246,30.95142364501953,0.0
1249,-3.9267578125,-2.830810546875,-4.925048828125,497.0,-513.0,305.0,-24.19995880126953,34.65430450439453,0.0,108.98101806640625,-112.40243530273438,70.027099609375,-20.336153030395508,30.93918800354004,0.0
1254,-3.92822265625,-2.83203125,-4.919189453125,495.0,-486.0,299.0,-24.2216739654541,34.68540573120117,0.0,109.01880645751953,-112.43953704833984,70.0499267578125,-20.32656478881836,30.92928123474121,0.0
1259,-3.92578125,-2.82958984375,-4.927490234375,498.0,-487.0,333.0,-24.186298370361328,34.64051818847656,0.0,109.05682373046875,-112.47671508789062,70.07534790039062,-20.31653594970703,30.919017791748047,0.0
1264,-3.927001953125,-2.8369140625,-4.9248046875,506.0,-488.0,321.0,-24.24626350402832,34.64261245727539,0.0,109.09545135498047,-112.51396942138672,70.099853515625,-20.306373596191406,30.908740997314453,0.0
1269,-3.9267578125,-2.830322265625,-4.927490234375,510.0,-475.0,309.0,-24.18977165222168,34.64546585083008,0.0,109.13438415527344,-112.55023193359375,70.12344360351562,-20.295547485351562,30.899517059326172,0.0
1274,-3.927490234375,-2.831787109375,-4.92529296875,503.0,-483.0,295.0,-24.20514488220215,34.656009674072266,0.0,109.17278289794922,-112.58710479736328,70.14596557617188,-20.285411834716797,30.889799118041992,0.0
1279,-3.931640625,-2.829345703125,-4.923828125,481.0,-474.0,288.0,-24.181764602661133,34.6960563659668,0.0,109.20950317382812,-112.623291015625,70.16795349121094,-20.276819229125977,30.881093978881836,0.0
1284,-3.927490234375,-2.833251953125,-4.92529296875,487.0,-464.0,298.0,-24.21622657775879,34.652565002441406,0.0,109.2466812133789,-112.6587142944336,70.19070434570312,-20.26805305480957,30.87287139892578,0.0
1289,-3.930908203125,-2.831298828125,-4.921630859375,520.0,-488.0,308.0,-24.203933715820312,34.69546127319336,0.0,109.286376953125,-112.69596862792969,70.21421813964844,-20.25673484802246,30.863168716430664,0.0
1294,-3.92919921875,-2.83203125,-4.92529296875,509.0,-472.0,293.0,-24.203369140625,34.66709518432617,0.0,109.32523345947266,-112.73200225830078,70.23658752441406,-20.246299743652344,30.85451889038086,0.0
1299,-3.930908203125,-2.835693359375,-4.923828125,496.0,-491.0,302.0,-24.231334686279297,34.676124572753906,0.0,109.36309814453125,-112.76948547363281,70.2596435546875,-20.23709487915039,30.84453010559082,0.0
1304,-3.92724609375,-2.833251953125,-4.921875,478.0,-521.0,319.0,-24.225839614868164,34.66487503051758,0.0,109.39958953857422,-112.80925750732422,70.28399658203125,-20.2292537689209,30.832233428955078,0.0
1309,-3.926025390625,-2.83251953125,-4.9306640625,501.0,-511.0,304.0,-24.199506759643555,34.622337341308594,0.0,109.43783569335938,-112.8482666015625,70.30720520019531,-20.219512939453125,30.820453643798828,0.0
1315,-3.927001953125,-2.833251953125,-4.922607421875,485.0,-479.0,284.0,-24.224409103393555,34.660213470458984,0.0,109.47486114501953,-112.88483428955078,70.32888793945312,-20.211204528808594,30.811426162719727,0.0
1320,-3.92529296875,-2.8330078125,-4.92236328125,487.0,-485.0,304.0,-24.22684097290039,34.65011978149414,0.0,109.51947021484375,-112.92926025390625,70.35673522949219,-20.195491790771484,30.794635772705078,0.0
1325,-3.92822265625,-2.835693359375,-4.92138671875,490.0,-474.0,283.0,-24.2435359954834,34.66778564453125,0.0,109.55687713623047,-112.96544647216797,70.37834167480469,-20.187137603759766,30.786252975463867,0.0
1330,-3.92431640625,-2.832763671875,-4.925048828125,490.0,-461.0,300.0,-24.21991539001465,34.6330451965332,0.0,109.59428405761719,-113.00064086914062,70.4012451171875,-20.17864990234375,30.778642654418945,0.0
1335,-3.927490234375,-2.834716796875,-4.92138671875,486.0,-447.0,307.0,-24.23770523071289,34.66508865356445,0.0,109.63138580322266,-113.03475952148438,70.4246826171875,-20.170625686645508,30.772348403930664,0.0
1340,-3.92529296875,-2.835205078125,-4.921142578125,501.0,-466.0,290.0,-24.246719360351562,34.64993667602539,0.0,109.66963195800781,-113.0703353881836,70.44682312011719,-20.16156005859375,30.764528274536133,0.0
1345,-3.9306640625,-2.83740234375,-4.92431640625,505.0,-484.0,303.0,-24.24347686767578,34.66843795776367,0.0,109.70818328857422,-113.10728454589844,70.46995544433594,-20.15220832824707,30.755504608154297,0.0
1350,-3.92529296875,-2.833251953125,-4.922119140625,498.0,-487.0,300.0,-24.229337692260742,34.650543212890625,0.0,109.74620056152344,-113.14446258544922,70.49285888671875,-20.143327713012695,30.74616813659668,0.0
1355,-3.9267578125,-2.832275390625,-4.923583984375,494.0,-487.0,340.0,-24.21493911743164,34.65685272216797,0.0,109.7839126586914,-113.181640625,70.51881408691406,-20.134685516357422,30.736919403076172,0.0
1360,-3.927490234375,-2.83154296875,-4.928466796875,510.0,-509.0,310.0,-24.19485855102539,34.64360427856445,0.0,109.82284545898438,-113.22049713134766,70.54248046875,-20.124727249145508,30.7259521484375,0.0
1365,-3.928955078125,-2.832275390625,-4.922607421875,509.0,-478.0,299.0,-24.212873458862305,34.675838470458984,0.0,109.86170196533203,-113.25698852539062,70.5653076171875,-20.115018844604492,30.717615127563477,0.0
1370,-3.929443359375,-2.835693359375,-4.927490234375,503.0,-470.0,298.0,-24.224702835083008,34.65116500854492,0.0,109.90010070800781,-113.2928695678711,70.58805847167969,-20.105892181396484,30.709749221801758,0.0
1375,-3.92333984375,-2.832275390625,-4.920654296875,506.0,-454.0,292.0,-24.229995727539062,34.6454963684082,0.0,109.93872833251953,-113.32752227783203,70.6103515625,-20.096616744995117,30.703086853027344,0.0
1380,-3.9287109375,-2.83349609375,-4.922607421875,507.0,-456.0,321.0,-24.222627639770508,34.67129898071289,0.0,109.97743225097656,-113.36233520507812,70.63485717773438,-20.087257385253906,30.69647979736328,0.0
1385,-3.928466796875,-2.832763671875,-4.921142578125,501.0,-460.0,285.0,-24.22150230407715,34.67735290527344,0.0,110.01567840576172,-113.39745330810547,70.6566162109375,-20.078386306762695,30.689638137817383,0.0
1390,-3.92724609375,-2.832275390625,-4.929443359375,499.0,-469.0,326.0,-24.198320388793945,34.636226654052734,0.0,110.05377197265625,-113.43325805664062,70.68150329589844,-20.069543838500977,30.68185043334961,0.0
1395,-3.923828125,-2.832275390625,-4.92626953125,490.0,-491.0,313.0,-24.214006423950195,34.62586975097656,0.0,110.09117889404297,-113.47074127197266,70.70539855957031,-20.061534881591797,30.67235565185547,0.0
1400,-3.927490234375,-2.830078125,-4.923583984375,490.0,-510.0,331.0,-24.19675636291504,34.66701889038086,0.0,110.12858581542969,-113.50967407226562,70.73066711425781,-20.053438186645508,30.66175651550293,0.0
1405,-3.92626953125,-2.83251953125,-4.9189453125,492.0,-482.0,310.0,-24.23017120361328,34.67192077636719,0.0,110.16614532470703,-113.54647064208984,70.75433349609375,-20.045459747314453,30.653366088867188,0.0
1410,-3.925537109375,-2.8310546875,-4.922607421875,503.0,-492.0,320.0,-24.21088981628418,34.6553840637207,0.0,110.20454406738281,-113.58403015136719,70.77876281738281,-20.03654670715332,30.644140243530273,0.0
1415,-3.93115234375,-2.83203125,-4.92431640625,505.0,-509.0,287.0,-24.201820373535156,34.684410095214844,0.0,110.24309539794922,-113.62288665771484,70.80067443847656,-20.0274600982666,30.633874893188477,0.0
1420,-3.927734375,-2.8330078125,-4.9267578125,509.0,-472.0,310.0,-24.209964752197266,34.6488151550293,0.0,110.28195190429688,-113.65892028808594,70.8243408203125,-20.018171310424805,30.626216888427734,0.0
1425,-3.92431640625,-2.835693359375,-4.92236328125,507.0,-488.0,287.0,-24.249235153198242,34.63713073730469,0.0,110.3206558227539,-113.69617462158203,70.84625244140625,-20.00935173034668,30.61729621887207,0.0
1430,-3.928955078125,-2.83544921875,-4.923583984375,482.0,-450.0,311.0,-24.234285354614258,34.66437530517578,0.0,110.35745239257812,-113.73052215576172,70.8699951171875,-20.002363204956055,30.61149024963379,0.0
1435,-3.9267578125,-2.833251953125,-4.9248046875,485.0,-450.0,313.0,-24.219079971313477,34.64956283569336,0.0,110.39447784423828,-113.7648696899414,70.89389038085938,-19.99506950378418,30.605602264404297,0.0
1440,-3.927490234375,-2.83154296875,-4.92431640625,503.0,-448.0,293.0,-24.205894470214844,34.66057586669922,0.0,110.43287658691406,-113.79906463623047,70.916259765625,-19.986351013183594,30.599964141845703,0.0
1445,-3.932373046875,-2.830810546875,-4.917724609375,499.0,-463.0,305.0,-24.207509994506836,34.722599029541016,0.0,110.4709701538086,-113.83441162109375,70.93954467773438,-19.977989196777344,30.593643188476562,0.0
1450,-3.925048828125,-2.832275390625,-4.934326171875,495.0,-459.0,316.0,-24.189990997314453,34.60129165649414,0.0,110.50875854492188,-113.86945343017578,70.96366882324219,-19.969846725463867,30.58680534362793,0.0
1456,-3.9267578125,-2.8330078125,-4.92333984375,480.0,-493.0,312.0,-24.22113037109375,34.6561279296875,0.0,110.55272674560547,-113.91461181640625,70.99224853515625,-19.955902099609375,30.570405960083008,0.0
1461,-3.9267578125,-2.83251953125,-4.927490234375,511.0,-494.0,315.0,-24.20639419555664,34.64030456542969,0.0,110.59173583984375,-113.95232391357422,71.01629638671875,-19.94685935974121,30.561389923095703,0.0
1466,-3.927734375,-2.833740234375,-4.927978515625,492.0,-499.0,316.0,-24.21225929260254,34.64210510253906,0.0,110.6292953491211,-113.99041748046875,71.04042053222656,-19.939340591430664,30.552051544189453,0.0
1471,-3.931396484375,-2.835205078125,-4.927490234375,487.0,-487.0,322.0,-24.216869354248047,34.66563034057617,0.0,110.66647338867188,-114.02759552001953,71.06500244140625,-19.93226432800293,30.543832778930664,0.0
1476,-3.932373046875,-2.83251953125,-4.921630859375,493.0,-461.0,296.0,-24.210060119628906,34.70257568359375,0.0,110.70410919189453,-114.06278991699219,71.08760070800781,-19.92471694946289,30.53788185119629,0.0
1481,-3.927734375,-2.83349609375,-4.924072265625,484.0,-476.0,289.0,-24.22080421447754,34.65864562988281,0.0,110.74105834960938,-114.09912872314453,71.10966491699219,-19.917959213256836,30.53050994873047,0.0
1486,-3.925048828125,-2.829833984375,-4.926513671875,506.0,-460.0,319.0,-24.192293167114258,34.638938903808594,0.0,110.7796859741211,-114.13424682617188,71.13401794433594,-19.909364700317383,30.524246215820312,0.0
1491,-3.92626953125,-2.8330078125,-4.925537109375,492.0,-490.0,290.0,-24.216320037841797,34.6438102722168,0.0,110.81724548339844,-114.1716537475586,71.15615844726562,-19.90203857421875,30.51576805114746,0.0
1496,-3.92333984375,-2.8330078125,-4.921142578125,487.0,-502.0,319.0,-24.23423957824707,34.64177322387695,0.0,110.85442352294922,-114.20997619628906,71.18051147460938,-19.895248413085938,30.50640869140625,0.0
1501,-3.92919921875,-2.83349609375,-4.9208984375,495.0,-485.0,309.0,-24.226137161254883,34.68162155151367,0.0,110.8922119140625,-114.24700164794922,71.2041015625,-19.88782501220703,30.498661041259766,0.0
1506,-3.925048828125,-2.83251953125,-4.92431640625,528.0,-497.0,321.0,-24.218463897705078,34.64161682128906,0.0,110.9325180053711,-114.28494262695312,71.22860717773438,-19.877880096435547,30.489763259887695,0.0
1511,-3.9248046875,-2.835693359375,-4.9248046875,502.0,-495.0,317.0,-24.241695404052734,34.630489349365234,0.0,110.97084045410156,-114.3227310180664,71.2528076171875,-19.870119094848633,30.48098373413086,0.0
1516,-3.9287109375,-2.83154296875,-4.924072265625,491.0,-473.0,318.0,-24.203954696655273,34.66990661621094,0.0,111.0083236694336,-114.35884094238281,71.27708435058594,-19.862966537475586,30.47418975830078,0.0
1521,-3.932861328125,-2.8291015625,-4.926025390625,504.0,-516.0,306.0,-24.171497344970703,34.695960998535156,0.0,111.04679870605469,-114.39823150634766,71.30044555664062,-19.85463523864746,30.46434783935547,0.0
1526,-3.92529296875,-2.834716796875,-4.924072265625,491.0,-487.0,314.0,-24.23522186279297,34.63911056518555,0.0,111.08428192138672,-114.43540954589844,71.32441711425781,-19.84777069091797,30.45635986328125,0.0
1531,-3.9267578125,-2.8291015625,-4.9169921875,501.0,-464.0,316.0,-24.208450317382812,34.691307067871094,0.0,111.12252807617188,-114.47083282470703,71.34854125976562,-19.839994430541992,30.450517654418945,0.0
1536,-3.92822265625,-2.8310546875,-4.930419921875,464.0,-463.0,296.0,-24.184425354003906,34.64176559448242,0.0,111.15795135498047,-114.50617980957031,71.37113952636719,-19.83489418029785,30.444433212280273,0.0
1541,-3.925048828125,-2.8330078125,-4.92626953125,486.0,-463.0,286.0,-24.21695899963379,34.63248062133789,0.0,111.19505310058594,-114.5415267944336,71.39297485351562,-19.828369140625,30.438310623168945,0.0
1546,-3.932861328125,-2.830078125,-4.92431640625,504.0,-490.0,303.0,-24.183422088623047,34.700660705566406,0.0,111.23352813720703,-114.57893371582031,71.41610717773438,-19.820276260375977,30.43063735961914,0.0
1551,-3.927490234375,-2.835693359375,-4.92822265625,503.0,-475.0,305.0,-24.226896286010742,34.63485336303711,0.0,111.27192687988281,-114.61519622802734,71.43939208984375,-19.81260108947754,30.42368507385254,0.0
1556,-3.9228515625,-2.833251953125,-4.926025390625,523.0,-490.0,300.0,-24.224117279052734,34.61790466308594,0.0,111.31185150146484,-114.65260314941406,71.46229553222656,-19.80342674255371,30.415510177612305,0.0
1561,-3.929443359375,-2.83349609375,-4.924072265625,505.0,-481.0,315.0,-24.21717643737793,34.67030715942383,0.0,111.35040283203125,-114.68932342529297,71.48634338378906,-19.795616149902344,30.40842056274414,0.0
1566,-3.924560546875,-2.83251953125,-4.9208984375,492.0,-501.0,303.0,-24.228601455688477,34.652259826660156,0.0,111.3879623413086,-114.72756958007812,71.50947570800781,-19.788908004760742,30.39972496032715,0.0
1571,-3.92578125,-2.8291015625,-4.927001953125,516.0,-482.0,303.0,-24.183900833129883,34.6436653137207,0.0,111.42735290527344,-114.76436614990234,71.53260803222656,-19.78010368347168,30.3924560546875,0.0
1576,-3.931396484375,-2.832763671875,-4.92822265625,497.0,-491.0,316.0,-24.19646453857422,34.66837692260742,0.0,111.46529388427734,-114.80184936523438,71.55673217773438,-19.772871017456055,30.38471031188965,0.0
1581,-3.93212890625,-2.833984375,-4.924560546875,488.0,-467.0,292.0,-24.2138729095459,34.68547439575195,0.0,111.50254821777344,-114.8375015258789,71.57902526855469,-19.766475677490234,30.378942489624023,0.0
1586,-3.927734375,-2.830322265625,-4.92529296875,501.0,-495.0,317.0,-24.193544387817383,34.66111755371094,0.0,111.5407943725586,-114.87528991699219,71.60322570800781,-19.758983612060547,30.370908737182617,0.0
1592,-3.928955078125,-2.829833984375,-4.922119140625,499.0,-464.0,325.0,-24.195695877075195,34.68358612060547,0.0,111.58650207519531,-114.91779327392578,71.63299560546875,-19.744216918945312,30.358469009399414,0.0
1597,-3.929443359375,-2.83447265625,-4.92822265625,470.0,-485.0,319.0,-24.213525772094727,34.65104293823242,0.0,111.62238311767578,-114.95481872558594,71.6573486328125,-19.739423751831055,30.351318359375,0.0
1602,-3.921875,-2.834228515625,-4.923583984375,506.0,-469.0,306.0,-24.240083694458008,34.61891555786133,0.0,111.6610107421875,-114.9906234741211,71.68070983886719,-19.732101440429688,30.34519386291504,0.0
1607,-3.926025390625,-2.83349609375,-4.92578125,503.0,-492.0,317.0,-24.21988296508789,34.63999557495117,0.0,111.69940948486328,-115.02818298339844,71.70491027832031,-19.724903106689453,30.33749771118164,0.0
1612,-3.9287109375,-2.8310546875,-4.928955078125,488.0,-466.0,334.0,-24.18728256225586,34.65108108520508,0.0,111.73666381835938,-115.06375885009766,71.73040771484375,-19.718650817871094,30.33188819885254,0.0
1617,-3.93017578125,-2.832275390625,-4.927001953125,495.0,-489.0,323.0,-24.19860076904297,34.66619110107422,0.0,111.77445220947266,-115.10108947753906,71.75506591796875,-19.711973190307617,30.324663162231445,0.0
1622,-3.928955078125,-2.83349609375,-4.929443359375,507.0,-496.0,307.0,-24.20393180847168,34.64501953125,0.0,111.81315612792969,-115.13895416259766,71.77850341796875,-19.70445442199707,30.316797256469727,0.0
1627,-3.92919921875,-2.83056640625,-4.926513671875,484.0,-492.0,317.0,-24.189041137695312,34.66554260253906,0.0,111.85010528564453,-115.176513671875,71.80270385742188,-19.6986141204834,30.309415817260742,0.0
1632,-3.925048828125,-2.832763671875,-4.925048828125,484.0,-480.0,311.0,-24.21836280822754,34.63804626464844,0.0,111.88705444335938,-115.2131576538086,71.82644653320312,-19.69300079345703,30.302791595458984,0.0
1637,-3.92919921875,-2.833251953125,-4.9208984375,493.0,-492.0,302.0,-24.22429084777832,34.68219757080078,0.0,111.92469024658203,-115.25071716308594,71.84950256347656,-19.686771392822266,30.29559326171875,0.0
1642,-3.926513671875,-2.83203125,-4.92626953125,502.0,-486.0,310.0,-24.206464767456055,34.644775390625,0.0,111.9630126953125,-115.2878189086914,71.8731689453125,-19.679765701293945,30.28862762451172,0.0
1647,-3.92919921875,-2.832763671875,-4.928466796875,487.0,-471.0,314.0,-24.200471878051758,34.65239334106445,0.0,112.00019073486328,-115.32377624511719,71.89714050292969,-19.67388916015625,30.282888412475586,0.0
1652,-3.927734375,-2.83154296875,-4.92626953125,494.0,-470.0,301.0,-24.20018196105957,34.65425491333008,0.0,112.03790283203125,-115.35965728759766,71.92012023925781,-19.66750717163086,30.277263641357422,0.0
1657,-3.92822265625,-2.8330078125,-4.929443359375,513.0,-469.0,280.0,-24.201791763305664,34.641170501708984,0.0,112.07706451416016,-115.39546203613281,71.94149780273438,-19.659727096557617,30.271650314331055,0.0
1662,-3.93115234375,-2.833251953125,-4.926513671875,489.0,-467.0,304.0,-24.20521354675293,34.672550201416016,0.0,112.11439514160156,-115.43111419677734,71.96470642089844,-19.65382957458496,30.266429901123047,0.0
1667,-3.929931640625,-2.833984375,-4.923583984375,481.0,-488.0,289.0,-24.221132278442383,34.67448425292969,0.0,112.15111541748047,-115.46836853027344,71.98677062988281,-19.64867401123047,30.25965118408203,0.0
1672,-3.923828125,-2.8349609375,-4.92333984375,498.0,-498.0,316.0,-24.242130279541016,34.63153076171875,0.0,112.18913269042969,-115.50638580322266,72.01089477539062,-19.642396926879883,30.251855850219727,0.0
1677,-3.927734375,-2.829833984375,-4.923095703125,491.0,-509.0,307.0,-24.195690155029297,34.67125701904297,0.0,112.22661590576172,-115.54524230957031,72.03433227539062,-19.636362075805664,30.243539810180664,0.0
1682,-3.93115234375,-2.829345703125,-4.927978515625,487.0,-456.0,300.0,-24.17177963256836,34.67573928833008,0.0,112.2637939453125,-115.5800552368164,72.05723571777344,-19.630495071411133,30.239316940307617,0.0
1687,-3.925048828125,-2.83154296875,-4.927978515625,494.0,-480.0,308.0,-24.201330184936523,34.628936767578125,0.0,112.30150604248047,-115.61669921875,72.08074951171875,-19.624326705932617,30.232969284057617,0.0
1692,-3.92529296875,-2.82666015625,-4.922607421875,511.0,-481.0,312.0,-24.178133010864258,34.66405487060547,0.0,112.34051513671875,-115.6534194946289,72.10456848144531,-19.616741180419922,30.226818084716797,0.0
1697,-3.9296875,-2.8330078125,-4.928466796875,503.0,-459.0,300.0,-24.201282501220703,34.6551513671875,0.0,112.37891387939453,-115.68846130371094,72.12747192382812,-19.609960556030273,30.222305297851562,0.0
1702,-3.927490234375,-2.837158203125,-4.92138671875,494.0,-482.0,321.0,-24.256175994873047,34.65933609008789,0.0,112.4166259765625,-115.72525787353516,72.1519775390625,-19.604270935058594,30.216094970703125,0.0
1707,-3.93115234375,-2.83544921875,-4.924072265625,485.0,-488.0,332.0,-24.228321075439453,34.677364349365234,0.0,112.45365142822266,-115.76251220703125,72.17732238769531,-19.59910011291504,30.209585189819336,0.0
1712,-3.930908203125,-2.832763671875,-4.921142578125,509.0,-502.0,288.0,-24.21631622314453,34.694007873535156,0.0,112.49250793457031,-115.80083465576172,72.19931030273438,-19.592052459716797,30.202159881591797,0.0
1717,-3.930419921875,-2.83544921875,-4.927490234375,481.0,-485.0,303.0,-24.22078514099121,34.65839767456055,0.0,112.52922821044922,-115.83786010742188,72.22244262695312,-19.58719253540039,30.195819854736328,0.0
1722,-3.92724609375,-2.83154296875,-4.928466796875,499.0,-478.0,315.0,-24.195375442504883,34.641937255859375,0.0,112.56732177734375,-115.87435150146484,72.24649047851562,-19.58081817626953,30.189929962158203,0.0
1728,-3.927734375,-2.833740234375,-4.927001953125,502.0,-469.0,318.0,-24.214855194091797,34.646095275878906,0.0,112.6133041381836,-115.91731262207031,72.27561950683594,-19.56686019897461,30.177757263183594,0.0
1733,-3.9248046875,-2.838134765625,-4.92578125,484.0,-473.0,290.0,-24.257558822631836,34.62075424194336,0.0,112.65025329589844,-115.95342254638672,72.29776000976562,-19.562252044677734,30.172290802001953,0.0
1738,-3.92626953125,-2.83203125,-4.927978515625,480.0,-458.0,303.0,-24.202436447143555,34.63612365722656,0.0,112.68689727783203,-115.98838806152344,72.32089233398438,-19.557588577270508,30.1680908203125,0.0
1743,-3.927978515625,-2.830078125,-4.9306640625,498.0,-499.0,315.0,-24.17690658569336,34.64139175415039,0.0,112.72491455078125,-116.02648162841797,72.34494018554688,-19.551406860351562,30.16083526611328,0.0
1748,-3.930419921875,-2.8330078125,-4.929931640625,511.0,-467.0,301.0,-24.195838928222656,34.65415954589844,0.0,112.76392364501953,-116.0621337890625,72.367919921875,-19.54439926147461,30.156131744384766,0.0
1753,-3.927734375,-2.8310546875,-4.922607421875,517.0,-492.0,325.0,-24.206226348876953,34.67038345336914,0.0,112.80339050292969,-116.09969329833984,72.39273071289062,-19.537044525146484,30.1496639251709,0.0
1758,-3.927490234375,-2.833984375,-4.924072265625,493.0,-505.0,304.0,-24.22501564025879,34.65583038330078,0.0,112.84102630615234,-116.13824462890625,72.41593933105469,-19.531675338745117,30.14214515686035,0.0
1763,-3.9296875,-2.829833984375,-4.9189453125,509.0,-483.0,321.0,-24.202577590942383,34.70158004760742,0.0,112.8798828125,-116.17511749267578,72.44044494628906,-19.524965286254883,30.13664436340332,0.0
1768,-3.93017578125,-2.83251953125,-4.92333984375,499.0,-498.0,317.0,-24.210182189941406,34.68059539794922,0.0,112.91797637939453,-116.213134765625,72.46464538574219,-19.519100189208984,30.12989044189453,0.0
1773,-3.929931640625,-2.8349609375,-4.92236328125,497.0,-492.0,313.0,-24.231765747070312,34.67717742919922,0.0,112.95591735839844,-116.25069427490234,72.48854064941406,-19.513561248779297,30.12360382080078,0.0
1778,-3.928466796875,-2.8330078125,-4.91943359375,498.0,-477.0,298.0,-24.22789764404297,34.68376922607422,0.0,112.99393463134766,-116.287109375,72.51129150390625,-19.50794792175293,30.118532180786133,0.0
1783,-3.93017578125,-2.837158203125,-4.923583984375,474.0,-477.0,319.0,-24.244617462158203,34.668678283691406,0.0,113.03012084960938,-116.32352447509766,72.53564453125,-19.504295349121094,30.11338233947754,0.0
1788,-3.925537109375,-2.833984375,-4.928466796875,526.0,-488.0,302.0,-24.217464447021484,34.624542236328125,0.0,113.07027435302734,-116.36077880859375,72.55870056152344,-19.49652862548828,30.107120513916016,0.0
1793,-3.926025390625,-2.831787109375,-4.92333984375,488.0,-473.0,311.0,-24.21344757080078,34.65399932861328,0.0,113.10752868652344,-116.39688873291016,72.58244323730469,-19.491657257080078,30.102230072021484,0.0
1798,-3.923583984375,-2.82958984375,-4.92236328125,477.0,-478.0,295.0,-24.204593658447266,34.64649200439453,0.0,113.1439437866211,-116.43338012695312,72.60496520996094,-19.48758316040039,30.0969295501709,0.0
1803,-3.928466796875,-2.8330078125,-4.92529296875,511.0,-469.0,293.0,-24.212308883666992,34.6598014831543,0.0,113.18295288085938,-116.46918487548828,72.62733459472656,-19.481000900268555,30.092430114746094,0.0
1808,-3.930419921875,-2.83349609375,-4.9228515625,497.0,-499.0,297.0,-24.21834945678711,34.68196105957031,0.0,113.22089385986328,-116.50727844238281,72.65000915527344,-19.475555419921875,30.085826873779297,0.0
1813,-3.928466796875,-2.830078125,-4.91796875,501.0,-465.0,312.0,-24.20961570739746,34.69667053222656,0.0,113.25914001464844,-116.54277801513672,72.673828125,-19.46977424621582,30.081937789916992,0.0
1818,-3.9287109375,-2.832275390625,-4.92822265625,525.0,-483.0,323.0,-24.198461532592773,34.65121078491211,0.0,113.2992172241211,-116.57965087890625,72.698486328125,-19.462125778198242,30.07638931274414,0.0
1823,-3.93115234375,-2.833984375,-4.9208984375,506.0,-485.0,312.0,-24.225683212280273,34.69379806518555,0.0,113.33784484863281,-116.6166763305664,72.72230529785156,-19.456146240234375,30.071006774902344,0.0
1828,-3.922119140625,-2.83544921875,-4.929931640625,510.0,-476.0,316.0,-24.23188591003418,34.59178924560547,0.0,113.37677764892578,-116.65301513671875,72.74642944335938,-19.449935913085938,30.065643310546875,0.0
1833,-3.92529296875,-2.83154296875,-4.928466796875,484.0,-462.0,294.0,-24.199514389038086,34.62860870361328,0.0,113.41372680664062,-116.68828582763672,72.76887512207031,-19.44550895690918,30.061616897583008,0.0
1838,-3.9326171875,-2.83154296875,-4.92578125,493.0,-475.0,304.0,-24.191131591796875,34.68955612182617,0.0,113.45136260986328,-116.72454833984375,72.79208374023438,-19.44036293029785,30.057037353515625,0.0
1843,-3.92529296875,-2.8359375,-4.9287109375,486.0,-475.0,307.0,-24.232101440429688,34.61729049682617,0.0,113.48846435546875,-116.76081085205078,72.81552124023438,-19.436052322387695,30.05198860168457,0.0
1848,-3.929931640625,-2.83251953125,-4.927001953125,497.0,-504.0,322.0,-24.200965881347656,34.6639518737793,0.0,113.52640533447266,-116.79928588867188,72.84010314941406,-19.430715560913086,30.04508399963379,0.0
1853,-3.9287109375,-2.833740234375,-4.9267578125,504.0,-514.0,317.0,-24.21343421936035,34.65375518798828,0.0,113.56488037109375,-116.8385238647461,72.86430358886719,-19.42496109008789,30.037389755249023,0.0
1858,-3.923828125,-2.833251953125,-4.924560546875,492.0,-482.0,321.0,-24.2259464263916,34.63056182861328,0.0,113.6024398803711,-116.87532043457031,72.88880920410156,-19.420228958129883,30.032007217407227,0.0
1864,-3.931884765625,-2.830810546875,-4.920654296875,495.0,-485.0,285.0,-24.200761795043945,34.70726776123047,0.0,113.64778137207031,-116.91974639892578,72.9149169921875,-19.4077091217041,30.019681930541992,0.0
1869,-3.92822265625,-2.830078125,-4.92529296875,489.0,-450.0,297.0,-24.19066047668457,34.66502380371094,0.0,113.68511199951172,-116.95409393310547,72.93759155273438,-19.403156280517578,30.01715087890625,0.0
1874,-3.925048828125,-2.833740234375,-4.926025390625,509.0,-453.0,323.0,-24.22315216064453,34.63175964355469,0.0,113.72396850585938,-116.9886703491211,72.96224975585938,-19.397329330444336,30.01417350769043,0.0
1879,-3.932861328125,-2.82958984375,-4.930908203125,497.0,-460.0,300.0,-24.162235260009766,34.674835205078125,0.0,113.76190948486328,-117.02378845214844,72.98515319824219,-19.39202880859375,30.010969161987305,0.0
1884,-3.93017578125,-2.830078125,-4.925048828125,496.0,-483.0,294.0,-24.187170028686523,34.67934799194336,0.0,113.79977416992188,-117.06066131591797,73.00759887695312,-19.386999130249023,30.00606346130371,0.0
1889,-3.92236328125,-2.8330078125,-4.9248046875,498.0,-464.0,320.0,-24.2265567779541,34.62013244628906,0.0,113.8377914428711,-117.09608459472656,73.03202819824219,-19.382110595703125,30.002220153808594,0.0
1894,-3.93408203125,-2.834716796875,-4.92138671875,506.0,-475.0,332.0,-24.22369956970215,34.710052490234375,0.0,113.87641906738281,-117.1323471069336,73.057373046875,-19.376619338989258,29.998170852661133,0.0
1899,-3.9287109375,-2.831298828125,-4.92431640625,509.0,-476.0,291.0,-24.201457977294922,34.66947937011719,0.0,113.91527557373047,-117.16868591308594,73.07958984375,-19.370777130126953,29.993789672851562,0.0
1904,-3.925537109375,-2.8369140625,-4.919677734375,496.0,-518.0,314.0,-24.263036727905273,34.653564453125,0.0,113.95314025878906,-117.2082290649414,73.10356140136719,-19.366369247436523,29.98613739013672,0.0
1909,-3.933349609375,-2.831787109375,-4.921875,503.0,-477.0,293.0,-24.201797485351562,34.7099609375,0.0,113.99153900146484,-117.24464416503906,73.12593078613281,-19.36103630065918,29.982019424438477,0.0
1914,-3.928466796875,-2.83251953125,-4.92333984375,493.0,-456.0,307.0,-24.213809967041016,34.66893768310547,0.0,114.0291748046875,-117.27945709228516,73.14936828613281,-19.356569290161133,29.979232788085938,0.0
1919,-3.926025390625,-2.833984375,-4.9228515625,516.0,-475.0,290.0,-24.231374740600586,34.65082550048828,0.0,114.06856536865234,-117.31571960449219,73.1715087890625,-19.350500106811523,29.97489356994629,0.0
1924,-3.928955078125,-2.8330078125,-4.9248046875,522.0,-453.0,305.0,-24.21257209777832,34.665130615234375,0.0,114.10841369628906,-117.35029602050781,73.19479370117188,-19.34387969970703,29.972339630126953,0.0
1929,-3.92724609375,-2.83154296875,-4.92333984375,488.0,-487.0,312.0,-24.20901107788086,34.662906646728516,0.0,114.14566802978516,-117.3874740600586,73.21861267089844,-19.339847564697266,29.967201232910156,0.0
1934,-3.9228515625,-2.836181640625,-4.92822265625,497.0,-457.0,322.0,-24.24042510986328,34.602046966552734,0.0,114.18360900878906,-117.42236328125,73.24319458007812,-19.335365295410156,29.963951110839844,0.0
1939,-3.930908203125,-2.835205078125,-4.92333984375,506.0,-493.0,319.0,-24.228940963745117,34.67926788330078,0.0,114.22223663330078,-117.45999908447266,73.26754760742188,-19.33014488220215,29.95850944519043,0.0
1944,-3.92431640625,-2.831298828125,-4.925537109375,526.0,-467.0,326.0,-24.207530975341797,34.63449478149414,0.0,114.26239013671875,-117.49565124511719,73.29243469238281,-19.32328987121582,29.95476531982422,0.0
1949,-3.926513671875,-2.83251953125,-4.930419921875,524.0,-498.0,328.0,-24.199121475219727,34.62666702270508,0.0,114.3023910522461,-117.5336685180664,73.31747436523438,-19.316566467285156,29.948633193969727,0.0
1954,-3.93017578125,-2.834716796875,-4.921630859375,504.0,-491.0,300.0,-24.23134994506836,34.68241500854492,0.0,114.34086608886719,-117.57115173339844,73.34037780761719,-19.311616897583008,29.943443298339844,0.0
1959,-3.925537109375,-2.83447265625,-4.924072265625,500.0,-471.0,310.0,-24.23285675048828,34.641353607177734,0.0,114.37903594970703,-117.60710906982422,73.36404418945312,-19.307004928588867,29.93951988220215,0.0
1964,-3.926513671875,-2.835205078125,-4.922119140625,505.0,-473.0,306.0,-24.24152374267578,34.65427780151367,0.0,114.41758728027344,-117.64321899414062,73.38740539550781,-19.302095413208008,29.935550689697266,0.0
1969,-3.9287109375,-2.83544921875,-4.92236328125,478.0,-486.0,315.0,-24.238052368164062,34.66769790649414,0.0,114.4540786743164,-117.6803207397461,73.41145324707031,-19.29923439025879,29.930706024169922,0.0
1974,-3.927734375,-2.83349609375,-4.921875,488.0,-459.0,307.0,-24.22665023803711,34.667633056640625,0.0,114.4913330078125,-117.71536254882812,73.43489074707031,-19.295549392700195,29.927932739257812,0.0
1979,-3.92919921875,-2.833984375,-4.923583984375,488.0,-470.0,298.0,-24.222686767578125,34.66948699951172,0.0,114.5285873413086,-117.7512435913086,73.4576416015625,-19.291854858398438,29.92435073852539,0.0
1984,-3.930419921875,-2.832763671875,-4.91943359375,519.0,-493.0,322.0,-24.221899032592773,34.69767379760742,0.0,114.56820678710938,-117.78887939453125,73.48222351074219,-19.285823822021484,29.919231414794922,0.0
1989,-3.921142578125,-2.83447265625,-4.927490234375,492.0,-488.0,320.0,-24.233074188232422,34.597381591796875,0.0,114.60576629638672,-117.82613372802734,73.50665283203125,-19.28194808959961,29.91383934020996,0.0
1994,-3.926025390625,-2.829833984375,-4.9169921875,495.0,-505.0,327.0,-24.21555519104004,34.68457794189453,0.0,114.6435546875,-117.86468505859375,73.5316162109375,-19.27774429321289,29.907777786254883,0.0
2000,-3.931396484375,-2.82958984375,-4.922607421875,516.0,-504.0,316.0,-24.18737030029297,34.698814392089844,0.0,114.6908187866211,-117.91085052490234,73.56056213378906,-19.264049530029297,29.894372940063477,0.0
2005,-3.92626953125,-2.833251953125,-4.922607421875,532.0,-487.0,299.0,-24.225963592529297,34.655216217041016,0.0,114.73143005371094,-117.94802856445312,73.58338928222656,-19.257312774658203,29.889686584472656,0.0
2010,-3.93017578125,-2.83251953125,-4.9228515625,528.0,-504.0,308.0,-24.21148109436035,34.682594299316406,0.0,114.77173614501953,-117.98650360107422,73.60690307617188,-19.250818252563477,29.883920669555664,0.0
2015,-3.93115234375,-2.83203125,-4.92626953125,490.0,-475.0,307.0,-24.196630477905273,34.67641830444336,0.0,114.80914306640625,-118.02276611328125,73.63034057617188,-19.24713897705078,29.880342483520508,0.0
2020,-3.931640625,-2.8310546875,-4.921630859375,515.0,-466.0,306.0,-24.200532913208008,34.70103073120117,0.0,114.84845733642578,-118.05834197998047,73.65370178222656,-19.241609573364258,29.87763023376465,0.0
2025,-3.928466796875,-2.833984375,-4.927001953125,495.0,-446.0,300.0,-24.21514892578125,34.650516510009766,0.0,114.88624572753906,-118.0923843383789,73.67660522460938,-19.23772430419922,29.876102447509766,0.0
2030,-3.9287109375,-2.834716796875,-4.9326171875,496.0,-454.0,290.0,-24.205242156982422,34.627525329589844,0.0,114.92411041259766,-118.12703704833984,73.69874572753906,-19.233713150024414,29.873815536499023,0.0
2035,-3.926025390625,-2.83349609375,-4.92919921875,488.0,-462.0,341.0,-24.21078872680664,34.62602996826172,0.0,114.96136474609375,-118.16230773925781,73.72477722167969,-19.230365753173828,29.870920181274414,0.0
2040,-3.927978515625,-2.83251953125,-4.91748046875,499.0,-476.0,312.0,-24.230438232421875,34.68958282470703,0.0,114.99945831298828,-118.19864654541016,73.74859619140625,-19.22633171081543,29.86740493774414,0.0
2045,-3.93212890625,-2.829833984375,-4.92333984375,479.0,-499.0,322.0,-24.185720443725586,34.70023727416992,0.0,115.03602600097656,-118.23674011230469,73.77317810058594,-19.223529815673828,29.862232208251953,0.0
2050,-3.926513671875,-2.833984375,-4.92431640625,508.0,-497.0,304.0,-24.226438522338867,34.648170471191406,0.0,115.0748062133789,-118.2746810913086,73.79638671875,-19.21881866455078,29.856887817382812,0.0
2055,-3.931396484375,-2.83203125,-4.927734375,512.0,-524.0,314.0,-24.192222595214844,34.67209243774414,0.0,115.1138916015625,-118.31468200683594,73.82035827636719,-19.21359634399414,29.849685668945312,0.0
2060,-3.926025390625,-2.830810546875,-4.918212890625,492.0,-519.0,312.0,-24.219701766967773,34.677276611328125,0.0,115.15145111083984,-118.35430145263672,73.84417724609375,-19.21010398864746,29.842941284179688,0.0
2065,-3.9296875,-2.831787109375,-4.926513671875,496.0,-500.0,311.0,-24.197240829467773,34.6660041809082,0.0,115.18931579589844,-118.39247131347656,73.867919921875,-19.206172943115234,29.83759880065918,0.0
2070,-3.92626953125,-2.83349609375,-4.925048828125,507.0,-476.0,296.0,-24.2213134765625,34.644657135009766,0.0,115.22801971435547,-118.4288101196289,73.89051818847656,-19.201589584350586,29.833961486816406,0.0
2075,-3.926513671875,-2.8359375,-4.920654296875,472.0,-457.0,296.0,-24.250967025756836,34.65854263305664,0.0,115.26405334472656,-118.46369934082031,73.91311645507812,-19.19988441467285,29.83187484741211,0.0
2080,-3.930419921875,-2.83056640625,-4.92724609375,479.0,-445.0,312.0,-24.18450927734375,34.670875549316406,0.0,115.30062103271484,-118.49766540527344,73.93693542480469,-19.197202682495117,29.83078956604004,0.0
2085,-3.926025390625,-2.83349609375,-4.927490234375,494.0,-444.0,323.0,-24.215333938598633,34.63301086425781,0.0,115.33833312988281,-118.53155517578125,73.96159362792969,-19.193603515625,29.829524993896484,0.0
2090,-3.92626953125,-2.833740234375,-4.92626953125,486.0,-469.0,308.0,-24.219911575317383,34.63909149169922,0.0,115.37543487548828,-118.5673599243164,73.985107421875,-19.190658569335938,29.82640838623047,0.0
2095,-3.92724609375,-2.830810546875,-4.92431640625,500.0,-479.0,315.0,-24.200870513916016,34.6606330871582,0.0,115.41360473632812,-118.60392761230469,74.0091552734375,-19.18653678894043,29.822690963745117,0.0
2100,-3.928955078125,-2.832275390625,-4.926513671875,499.0,-517.0,322.0,-24.202486038208008,34.65986251831055,0.0,115.45169830322266,-118.64339447021484,74.03373718261719,-19.182523727416992,29.81610870361328,0.0
2105,-3.927490234375,-2.8349609375,-4.920654296875,514.0,-501.0,313.0,-24.24150276184082,34.66750717163086,0.0,115.49093627929688,-118.681640625,74.05763244628906,-19.177656173706055,29.810827255249023,0.0
2110,-3.92822265625,-2.83251953125,-4.923095703125,510.0,-495.0,289.0,-24.214977264404297,34.668270111083984,0.0,115.52986907958984,-118.71942901611328,74.07969665527344,-19.17293930053711,29.8060359954834,0.0
2115,-3.932373046875,-2.83203125,-4.92333984375,525.0,-500.0,303.0,-24.201826095581055,34.69673156738281,0.0,115.5699462890625,-118.75759887695312,74.10282897949219,-19.167020797729492,29.801082611083984,0.0
2120,-3.927490234375,-2.829833984375,-4.921142578125,476.0,-444.0,290.0,-24.201400756835938,34.67758560180664,0.0,115.60628509521484,-118.79148864746094,74.12496948242188,-19.16485023498535,29.800273895263672,0.0
2125,-3.92724609375,-2.834228515625,-4.92724609375,507.0,-474.0,308.0,-24.218935012817383,34.64061737060547,0.0,115.64498901367188,-118.82767486572266,74.14848327636719,-19.16045570373535,29.79694175720215,0.0
2130,-3.927978515625,-2.830322265625,-4.92431640625,507.0,-448.0,301.0,-24.195621490478516,34.666778564453125,0.0,115.6836929321289,-118.86186981201172,74.17146301269531,-19.155927658081055,29.795772552490234,0.0
2136,-3.92724609375,-2.83642578125,-4.92138671875,481.0,-474.0,321.0,-24.25115203857422,34.65939712524414,0.0,115.72775268554688,-118.90528869628906,74.20086669921875,-19.14657211303711,29.785490036010742,0.0
2141,-3.931640625,-2.83056640625,-4.921875,488.0,-466.0,309.0,-24.196189880371094,34.70117950439453,0.0,115.76500701904297,-118.94086456298828,74.22445678710938,-19.143665313720703,29.783348083496094,0.0
2146,-3.929931640625,-2.831298828125,-4.924560546875,491.0,-492.0,305.0,-24.19822120666504,34.67681121826172,0.0,115.802490234375,-118.97842407226562,74.24774169921875,-19.14055633544922,29.779077529907227,0.0
2151,-3.93017578125,-2.829833984375,-4.92236328125,489.0,-490.0,317.0,-24.19245719909668,34.690914154052734,0.0,115.8398208618164,-119.01583099365234,74.27194213867188,-19.137575149536133,29.775074005126953,0.0
2156,-3.92822265625,-2.830322265625,-4.923583984375,495.0,-508.0,327.0,-24.197052001953125,34.671443939208984,0.0,115.87760925292969,-119.05461120605469,74.29690551757812,-19.13418197631836,29.769596099853516,0.0
2161,-3.92236328125,-2.8349609375,-4.914306640625,515.0,-517.0,314.0,-24.269330978393555,34.65846252441406,0.0,115.91692352294922,-119.09407806396484,74.32087707519531,-19.129777908325195,29.763378143310547,0.0
2166,-3.925537109375,-2.830078125,-4.918701171875,504.0,-500.0,318.0,-24.213891983032227,34.67367172241211,0.0,115.95539855957031,-119.13224792480469,74.34515380859375,-19.125856399536133,29.758586883544922,0.0
2171,-3.927001953125,-2.828857421875,-4.925537109375,502.0,-493.0,296.0,-24.183361053466797,34.658565521240234,0.0,115.99372100830078,-119.16988372802734,74.36775207519531,-19.121898651123047,29.754249572753906,0.0
2176,-3.923095703125,-2.829833984375,-4.921630859375,504.0,-456.0,303.0,-24.209428787231445,34.64558029174805,0.0,116.03219604492188,-119.20469665527344,74.39088439941406,-19.11798667907715,29.752653121948242,0.0
2181,-3.929443359375,-2.832763671875,-4.924072265625,488.0,-447.0,309.0,-24.21163558959961,34.67203140258789,0.0,116.06945037841797,-119.23881530761719,74.41447448730469,-19.115320205688477,29.751920700073242,0.0
2186,-3.930419921875,-2.83349609375,-4.9296875,502.0,-467.0,324.0,-24.200180053710938,34.65401077270508,0.0,116.10777282714844,-119.27446746826172,74.439208984375,-19.111528396606445,29.749549865722656,0.0
2191,-3.927734375,-2.8291015625,-4.923828125,506.0,-463.0,295.0,-24.18819808959961,34.66998291015625,0.0,116.14640045166016,-119.309814453125,74.46173095703125,-19.107370376586914,29.747600555419922,0.0
2196,-3.9306640625,-2.835205078125,-4.930908203125,491.0,-492.0,333.0,-24.20933723449707,34.64667510986328,0.0,116.18388366699219,-119.34737396240234,74.48715209960938,-19.10451316833496,29.743301391601562,0.0
2201,-3.931640625,-2.831787109375,-4.927001953125,514.0,-508.0,315.0,-24.191804885864258,34.67732620239258,0.0,116.2231216430664,-119.38615417480469,74.51119995117188,-19.099807739257812,29.738019943237305,0.0
2206,-3.925537109375,-2.8310546875,-4.920166015625,509.0,-497.0,321.0,-24.217388153076172,34.665374755859375,0.0,116.26197814941406,-119.4240951538086,74.53570556640625,-19.095680236816406,29.7335205078125,0.0
2211,-3.930908203125,-2.830078125,-4.925537109375,502.0,-489.0,297.0,-24.1843204498291,34.68234634399414,0.0,116.30030059814453,-119.46142578125,74.55838012695312,-19.091880798339844,29.729764938354492,0.0
2216,-3.926513671875,-2.834228515625,-4.92529296875,498.0,-501.0,313.0,-24.22568702697754,34.64360427856445,0.0,116.33831787109375,-119.49967193603516,74.582275390625,-19.08868408203125,29.7248592376709,0.0
2221,-3.927490234375,-2.830810546875,-4.921142578125,500.0,-480.0,314.0,-24.20879364013672,34.67528533935547,0.0,116.3764877319336,-119.53631591796875,74.60624694824219,-19.085237503051758,29.721784591674805,0.0
2226,-3.927001953125,-2.828125,-4.92529296875,503.0,-475.0,301.0,-24.178464889526367,34.661285400390625,0.0,116.41488647460938,-119.57257843017578,74.62922668457031,-19.081375122070312,29.719011306762695,0.0
2231,-3.926025390625,-2.834716796875,-4.927490234375,492.0,-463.0,331.0,-24.224567413330078,34.63014221191406,0.0,116.45244598388672,-119.60792541503906,74.65449523925781,-19.078678131103516,29.716951370239258,0.0
2236,-3.92236328125,-2.8330078125,-4.923828125,502.0,-462.0,321.0,-24.229158401489258,34.62412643432617,0.0,116.49076843261719,-119.64319610595703,74.67900085449219,-19.075265884399414,29.714935302734375,0.0
2241,-3.9296875,-2.8349609375,-4.928955078125,514.0,-479.0,311.0,-24.214752197265625,34.64856719970703,0.0,116.5300064086914,-119.67976379394531,74.70274353027344,-19.070863723754883,29.711801528930664,0.0
2246,-3.9326171875,-2.8388671875,-4.922119140625,495.0,-507.0,330.0,-24.256248474121094,34.68728256225586,0.0,116.56779479980469,-119.71846771240234,74.72793579101562,-19.068204879760742,29.70682144165039,0.0
2251,-3.923583984375,-2.8369140625,-4.929931640625,504.0,-510.0,305.0,-24.23986053466797,34.598350524902344,0.0,116.60626983642578,-119.75740051269531,74.751220703125,-19.06476593017578,29.7010440826416,0.0
2256,-3.93212890625,-2.83251953125,-4.925048828125,505.0,-520.0,284.0,-24.20149803161621,34.68692398071289,0.0,116.64482116699219,-119.7970962524414,74.77290344238281,-19.061012268066406,29.695138931274414,0.0
2261,-3.926025390625,-2.829833984375,-4.92333984375,495.0,-503.0,306.0,-24.198665618896484,34.658592224121094,0.0,116.68260955810547,-119.83549499511719,74.7962646484375,-19.058015823364258,29.690364837646484,0.0
2266,-3.928955078125,-2.83154296875,-4.9228515625,491.0,-499.0,312.0,-24.206682205200195,34.67656326293945,0.0,116.7200927734375,-119.87358856201172,74.82008361816406,-19.055391311645508,29.68604278564453,0.0
2272,-3.929443359375,-2.830810546875,-4.927001953125,495.0,-472.0,292.0,-24.18907356262207,34.66463851928711,0.0,116.76543426513672,-119.91682434082031,74.84683227539062,-19.044952392578125,29.676651000976562,0.0
2277,-3.9267578125,-2.83154296875,-4.925537109375,495.0,-471.0,297.0,-24.20420265197754,34.65058517456055,0.0,116.80322265625,-119.9527816772461,74.8695068359375,-19.042184829711914,29.674455642700195,0.0
2282,-3.92919921875,-2.82958984375,-4.931640625,507.0,-431.0,315.0,-24.168039321899414,34.646873474121094,0.0,116.84192657470703,-119.98567962646484,74.8935546875,-19.03827667236328,29.675275802612305,0.0
2287,-3.928466796875,-2.837890625,-4.9287109375,495.0,-450.0,295.0,-24.240137100219727,34.63435363769531,0.0,116.87971496582031,-120.02002716064453,74.91607666015625,-19.035783767700195,29.674558639526367,0.0
2292,-3.92138671875,-2.830810546875,-4.919189453125,491.0,-476.0,342.0,-24.22695541381836,34.641597747802734,0.0,116.91719818115234,-120.05636596679688,74.94218444824219,-19.03351402282715,29.671918869018555,0.0
2297,-3.926513671875,-2.831298828125,-4.921142578125,490.0,-509.0,306.0,-24.214563369750977,34.66747283935547,0.0,116.95460510253906,-120.09522247314453,74.96554565429688,-19.031246185302734,29.666961669921875,0.0
2302,-3.92724609375,-2.832763671875,-4.927001953125,495.0,-488.0,329.0,-24.208505630493164,34.645057678222656,0.0,116.99239349365234,-120.13247680664062,74.99066162109375,-19.028568267822266,29.66347312927246,0.0
2307,-3.92822265625,-2.83251953125,-4.92236328125,480.0,-512.0,317.0,-24.2169246673584,34.6712646484375,0.0,117.02903747558594,-120.17156219482422,75.01486206054688,-19.027095794677734,29.65835952758789,0.0
2312,-3.927734375,-2.82763671875,-4.928466796875,510.0,-507.0,319.0,-24.164785385131836,34.654441833496094,0.0,117.0679702758789,-120.21026611328125,75.03921508789062,-19.02300262451172,29.653539657592773,0.0
2317,-3.92724609375,-2.8330078125,-4.9248046875,485.0,-486.0,300.0,-24.216197967529297,34.65346908569336,0.0,117.10499572753906,-120.24736785888672,75.06211853027344,-19.02117156982422,29.650331497192383,0.0
2322,-3.93212890625,-2.830322265625,-4.923583984375,482.0,-496.0,301.0,-24.188766479492188,34.698089599609375,0.0,117.14179229736328,-120.28523254394531,75.08509826660156,-19.019390106201172,29.646682739257812,0.0
2327,-3.927978515625,-2.830810546875,-4.9208984375,514.0,-440.0,306.0,-24.208406448364258,34.67961883544922,0.0,117.1810302734375,-120.31881713867188,75.10845947265625,-19.015321731567383,29.647174835205078,0.0
2332,-3.931640625,-2.83642578125,-4.9248046875,494.0,-451.0,306.0,-24.23272132873535,34.67539978027344,0.0,117.21874237060547,-120.35324096679688,75.13182067871094,-19.012954711914062,29.64679527282715,0.0
2337,-3.92236328125,-2.831298828125,-4.91845703125,517.0,-471.0,302.0,-24.23052978515625,34.650115966796875,0.0,117.25820922851562,-120.38919830322266,75.15487670898438,-19.008838653564453,29.64472770690918,0.0
2342,-3.931640625,-2.82958984375,-4.92041015625,482.0,-472.0,334.0,-24.192689895629883,34.70948028564453,0.0,117.29500579833984,-120.42523193359375,75.18037414550781,-19.007143020629883,29.64299201965332,0.0
2347,-3.926513671875,-2.833740234375,-4.9345703125,493.0,-480.0,321.0,-24.19731903076172,34.60685729980469,0.0,117.3326416015625,-120.46187591552734,75.20487976074219,-19.00465202331543,29.639965057373047,0.0
2352,-3.92578125,-2.833984375,-4.931884765625,497.0,-507.0,329.0,-24.207855224609375,34.612247467041016,0.0,117.3705825805664,-120.50057983398438,75.22999572753906,-19.00193977355957,29.63494300842285,0.0
2357,-3.92822265625,-2.829833984375,-4.9267578125,507.0,-515.0,319.0,-24.184919357299805,34.659603118896484,0.0,117.40928649902344,-120.5398941040039,75.25434875488281,-18.998327255249023,29.629661560058594,0.0
2362,-3.930908203125,-2.8349609375,-4.918701171875,499.0,-506.0,325.0,-24.23943519592285,34.69881820678711,0.0,117.44738006591797,-120.57852172851562,75.27915954589844,-18.99570655822754,29.625354766845703,0.0
2367,-3.922607421875,-2.833740234375,-4.925537109375,494.0,-483.0,307.0,-24.229629516601562,34.617088317871094,0.0,117.48509216308594,-120.61539459228516,75.30259704589844,-18.993412017822266,29.62226676940918,0.0
2372,-3.928466796875,-2.830322265625,-4.9228515625,488.0,-489.0,317.0,-24.1984806060791,34.67610549926758,0.0,117.52234649658203,-120.65272521972656,75.32679748535156,-18.99137306213379,29.619136810302734,0.0
2377,-3.928466796875,-2.834228515625,-4.92919921875,483.0,-443.0,291.0,-24.211153030395508,34.64096450805664,0.0,117.55921936035156,-120.68653869628906,75.34901428222656,-18.98980712890625,29.619274139404297,0.0
2382,-3.9296875,-2.83447265625,-4.923583984375,503.0,-460.0,285.0,-24.225343704223633,34.671669006347656,0.0,117.59761810302734,-120.7216567993164,75.37077331542969,-18.986825942993164,29.618324279785156,0.0
2387,-3.930419921875,-2.83349609375,-4.926025390625,506.0,-463.0,285.0,-24.20991325378418,34.66897964477539,0.0,117.63624572753906,-120.75700378417969,75.39253234863281,-18.98352813720703,29.617130279541016,0.0
2392,-3.9287109375,-2.834716796875,-4.9306640625,478.0,-469.0,294.0,-24.210432052612305,34.635501861572266,0.0,117.67273712158203,-120.79280853271484,75.41497802734375,-18.98237419128418,29.615259170532227,0.0
2397,-3.920654296875,-2.835205078125,-4.926513671875,492.0,-488.0,316.0,-24.242252349853516,34.5963134765625,0.0,117.71029663085938,-120.83006286621094,75.43910217285156,-18.980375289916992,29.611692428588867,0.0
2402,-3.930419921875,-2.831787109375,-4.923828125,488.0,-522.0,288.0,-24.20282554626465,34.68198776245117,0.0,117.74755096435547,-120.86991119384766,75.46109008789062,-18.978424072265625,29.606142044067383,0.0
2408,-3.928466796875,-2.830322265625,-4.929931640625,510.0,-496.0,327.0,-24.17966651916504,34.64714431762695,0.0,117.79426574707031,-120.91534423828125,75.49104309082031,-18.967025756835938,29.594938278198242,0.0
2413,-3.923828125,-2.833740234375,-4.922607421875,492.0,-531.0,298.0,-24.234844207763672,34.63739776611328,0.0,117.83182525634766,-120.95587921142578,75.5137939453125,-18.965166091918945,29.588605880737305,0.0
2418,-3.92919921875,-2.832275390625,-4.925537109375,490.0,-477.0,305.0,-24.204566955566406,34.665523529052734,0.0,117.86923217773438,-120.99229431152344,75.53707885742188,-18.963260650634766,29.58659553527832,0.0
2423,-3.92822265625,-2.8330078125,-4.927490234375,516.0,-481.0,302.0,-24.20698356628418,34.64915084838867,0.0,117.90862274169922,-121.02901458740234,75.56013488769531,-18.959409713745117,29.584177017211914,0.0
2428,-3.927490234375,-2.837158203125,-4.927490234375,489.0,-484.0,302.0,-24.23992156982422,34.6343994140625,0.0,117.94595336914062,-121.06596374511719,75.58319091796875,-18.95784568786621,29.581443786621094,0.0
2433,-3.928955078125,-2.83251953125,-4.9287109375,512.0,-476.0,310.0,-24.19849395751953,34.650306701660156,0.0,117.98503875732422,-121.10230255126953,75.60685729980469,-18.954265594482422,29.579437255859375,0.0
2438,-3.92626953125,-2.832763671875,-4.924560546875,506.0,-481.0,289.0,-24.217071533203125,34.64837646484375,0.0,118.02366638183594,-121.13902282714844,75.62892150878906,-18.951282501220703,29.577045440673828,0.0
2443,-3.926025390625,-2.833740234375,-4.929931640625,498.0,-482.0,299.0,-24.21068572998047,34.62246322631836,0.0,118.06168365478516,-121.17581939697266,75.65174865722656,-18.948877334594727,29.57441520690918,0.0
2448,-3.927490234375,-2.830810546875,-4.92138671875,509.0,-458.0,300.0,-24.20814323425293,34.674285888671875,0.0,118.10054016113281,-121.21078491210938,75.67465209960938,-18.945632934570312,29.573965072631836,0.0
2453,-3.9267578125,-2.83203125,-4.9296875,527.0,-502.0,325.0,-24.19685935974121,34.63247299194336,0.0,118.1407699584961,-121.24910736083984,75.699462890625,-18.940961837768555,29.569896697998047,0.0
2458,-3.928955078125,-2.8310546875,-4.92529296875,505.0,-496.0,300.0,-24.196496963500977,34.667724609375,0.0,118.1793212890625,-121.28697204589844,75.72236633300781,-18.937984466552734,29.56654167175293,0.0
2463,-3.922607421875,-2.83447265625,-4.925048828125,512.0,-476.0,329.0,-24.236473083496094,34.61735916137695,0.0,118.2184066772461,-121.32331085205078,75.74748229980469,-18.93475914001465,29.564382553100586,0.0
2468,-3.927490234375,-2.834228515625,-4.922607421875,500.0,-487.0,307.0,-24.23076057434082,34.66124725341797,0.0,118.25657653808594,-121.36048889160156,75.77091979980469,-18.932422637939453,29.56169319152832,0.0
2473,-3.927734375,-2.83251953125,-4.92041015625,499.0,-515.0,298.0,-24.22315788269043,34.675926208496094,0.0,118.29467010498047,-121.3998031616211,75.79367065429688,-18.93012046813965,29.55699348449707,0.0
2478,-3.926513671875,-2.835693359375,-4.927490234375,501.0,-483.0,307.0,-24.230915069580078,34.63117980957031,0.0,118.33291625976562,-121.43667602539062,75.81710815429688,-18.9277286529541,29.554445266723633,0.0
2483,-3.925048828125,-2.830322265625,-4.932373046875,478.0,-477.0,318.0,-24.180410385131836,34.61384582519531,0.0,118.3694076538086,-121.47309112548828,75.84138488769531,-18.9267520904541,29.552249908447266,0.0
2488,-3.927734375,-2.83203125,-4.9267578125,494.0,-473.0,288.0,-24.202577590942383,34.65110778808594,0.0,118.40711975097656,-121.50920104980469,75.86337280273438,-18.924713134765625,29.550617218017578,0.0
2493,-3.926025390625,-2.83154296875,-4.917724609375,497.0,-492.0,272.0,-24.226547241210938,34.67755126953125,0.0,118.44506072998047,-121.54676055908203,75.8841323852539,-18.922616958618164,29.547725677490234,0.0
2498,-3.92431640625,-2.83349609375,-4.924072265625,489.0,-484.0,306.0,-24.228057861328125,34.63531494140625,0.0,118.48239135742188,-121.58370971679688,75.9074935913086,-18.921146392822266,29.5451717376709,0.0
2503,-3.923583984375,-2.83203125,-4.9228515625,501.0,-494.0,310.0,-24.221776962280273,34.63875198364258,0.0,118.52063751220703,-121.62142181396484,75.93115997314453,-18.918729782104492,29.54189682006836,0.0
2508,-3.9306640625,-2.83154296875,-4.92236328125,527.0,-483.0,300.0,-24.20435333251953,34.690223693847656,0.0,118.56086730957031,-121.65829467773438,75.95406341552734,-18.914236068725586,29.539817810058594,0.0
2513,-3.927490234375,-2.83447265625,-4.926513671875,494.0,-475.0,327.0,-24.222211837768555,34.64470291137695,0.0,118.59857940673828,-121.6945571899414,75.9790267944336,-18.912389755249023,29.53805160522461,0.0
2518,-3.927001953125,-2.830810546875,-4.923583984375,490.0,-469.0,313.0,-24.203336715698242,34.661964416503906,0.0,118.635986328125,-121.73036193847656,76.00292205810547,-18.910728454589844,29.536863327026367,0.0
2523,-3.932861328125,-2.827880859375,-4.92138671875,514.0,-465.0,295.0,-24.17456817626953,34.717830657958984,0.0,118.67522430419922,-121.76586151123047,76.02544403076172,-18.907060623168945,29.53635597229004,0.0
2528,-3.92431640625,-2.835205078125,-4.927978515625,509.0,-467.0,318.0,-24.23058319091797,34.61533737182617,0.0,118.71408081054688,-121.801513671875,76.04972076416016,-18.9041690826416,29.53500747680664,0.0
2533,-3.927734375,-2.82958984375,-4.92138671875,496.0,-450.0,266.0,-24.19838523864746,34.67882537841797,0.0,118.75194549560547,-121.83586120605469,76.07002258300781,-18.902061462402344,29.53537940979004,0.0
2538,-3.924560546875,-2.831298828125,-4.92626953125,500.0,-449.0,303.0,-24.205062866210938,34.63316345214844,0.0,118.79011535644531,-121.87013244628906,76.09315490722656,-18.899703979492188,29.535512924194336,0.0
2544,-3.928955078125,-2.831787109375,-4.92236328125,504.0,-500.0,300.0,-24.209827423095703,34.6779899597168,0.0,118.8362808227539,-121.91593170166016,76.12063598632812,-18.889549255371094,29.524593353271484,0.0
2549,-3.932861328125,-2.828369140625,-4.933349609375,491.0,-490.0,311.0,-24.146530151367188,34.6677131652832,0.0,118.87376403808594,-121.95333862304688,76.14437866210938,-18.887659072875977,29.52201271057129,0.0
2554,-3.930908203125,-2.8310546875,-4.92236328125,506.0,-486.0,293.0,-24.20013999938965,34.69303512573242,0.0,118.91239166259766,-121.99044036865234,76.166748046875,-18.884998321533203,29.51991844177246,0.0
2559,-3.929443359375,-2.833984375,-4.92431640625,507.0,-478.0,304.0,-24.2202205657959,34.66815948486328,0.0,118.95109558105469,-122.02693176269531,76.18995666503906,-18.882410049438477,29.51827049255371,0.0
2564,-3.928955078125,-2.836669921875,-4.922607421875,505.0,-496.0,304.0,-24.246118545532227,34.66549301147461,0.0,118.9896469116211,-122.0647964477539,76.21316528320312,-18.880159378051758,29.515247344970703,0.0
2569,-3.9267578125,-2.833251953125,-4.9248046875,505.0,-452.0,319.0,-24.219079971313477,34.64956283569336,0.0,119.0281982421875,-122.09929656982422,76.23751831054688,-18.877737045288086,29.51546859741211,0.0
2574,-3.931640625,-2.829833984375,-4.92529296875,491.0,-469.0,290.0,-24.181570053100586,34.68891143798828,0.0,119.06568145751953,-122.13510131835938,76.25965881347656,-18.876134872436523,29.514659881591797,0.0
2579,-3.930419921875,-2.834228515625,-4.920654296875,491.0,-481.0,291.0,-24.229734420776367,34.68922424316406,0.0,119.10316467285156,-122.17182159423828,76.28187561035156,-18.874860763549805,29.512941360473633,0.0
2584,-3.9296875,-2.8330078125,-4.92822265625,500.0,-471.0,304.0,-24.20193099975586,34.656150817871094,0.0,119.1413345336914,-122.20777893066406,76.30508422851562,-18.872722625732422,29.51176643371582,0.0
2589,-3.92919921875,-2.831787109375,-4.92529296875,510.0,-474.0,323.0,-24.201520919799805,34.667667388916016,0.0,119.18026733398438,-122.24396514892578,76.32974243164062,-18.86983299255371,29.51044464111328,0.0
2594,-3.92529296875,-2.837646484375,-4.9169921875,513.0,-450.0,300.0,-24.27625846862793,34.66115188598633,0.0,119.21942901611328,-122.27831268310547,76.35264587402344,-18.867231369018555,29.510902404785156,0.0
2599,-3.925537109375,-2.83251953125,-4.91845703125,508.0,-491.0,305.0,-24.233028411865234,34.668914794921875,0.0,119.25820922851562,-122.3157958984375,76.37593078613281,-18.864730834960938,29.5082950592041,0.0
2604,-3.92431640625,-2.831787109375,-4.925048828125,504.0,-473.0,310.0,-24.212526321411133,34.63534164428711,0.0,119.29668426513672,-122.3519058227539,76.39959716796875,-18.862407684326172,29.5068416595459,0.0
2609,-3.925048828125,-2.832763671875,-4.922607421875,490.0,-479.0,299.0,-24.22486114501953,34.64802932739258,0.0,119.33409118652344,-122.38847351074219,76.42242431640625,-18.861238479614258,29.505022048950195,0.0
2614,-3.930908203125,-2.832275390625,-4.92138671875,486.0,-469.0,290.0,-24.211973190307617,34.69416046142578,0.0,119.3711929321289,-122.42427825927734,76.44456481933594,-18.86029052734375,29.50428009033203,0.0
2619,-3.929443359375,-2.83349609375,-4.92138671875,515.0,-502.0,314.0,-24.224319458007812,34.68128967285156,0.0,119.41050720214844,-122.46260070800781,76.46853637695312,-18.857229232788086,29.500947952270508,0.0
2624,-3.931396484375,-2.830810546875,-4.922119140625,495.0,-455.0,315.0,-24.197906494140625,34.697940826416016,0.0,119.44829559326172,-122.4973373413086,76.49258422851562,-18.85552215576172,29.501310348510742,0.0
2629,-3.92529296875,-2.833740234375,-4.927734375,498.0,-504.0,297.0,-24.21808433532715,34.626441955566406,0.0,119.48631286621094,-122.53581237792969,76.5152587890625,-18.853729248046875,29.49747085571289,0.0
2634,-3.92919921875,-2.8359375,-4.924560546875,492.0,-480.0,313.0,-24.234861373901367,34.6609001159668,0.0,119.52387237548828,-122.57245635986328,76.53915405273438,-18.852510452270508,29.495702743530273,0.0
2639,-3.92431640625,-2.829833984375,-4.922607421875,505.0,-464.0,286.0,-24.204238891601562,34.64992141723633,0.0,119.56242370605469,-122.60787963867188,76.56098937988281,-18.85010528564453,29.49508285522461,0.0
2644,-3.928955078125,-2.8349609375,-4.91943359375,481.0,-450.0,304.0,-24.24163818359375,34.682498931884766,0.0,119.5991439819336,-122.64222717285156,76.58419799804688,-18.849781036376953,29.495742797851562,0.0
2649,-3.924072265625,-2.834228515625,-4.9267578125,476.0,-469.0,290.0,-24.226964950561523,34.62095260620117,0.0,119.63548278808594,-122.67803192138672,76.60633850097656,-18.8497371673584,29.49454116821289,0.0
2654,-3.930419921875,-2.829833984375,-4.92236328125,495.0,-464.0,303.0,-24.191938400268555,34.69258117675781,0.0,119.67327117919922,-122.71345520019531,76.62947082519531,-18.848012924194336,29.49420166015625,0.0
2659,-3.927001953125,-2.830810546875,-4.928955078125,494.0,-468.0,327.0,-24.189054489135742,34.63999557495117,0.0,119.71098327636719,-122.74918365478516,76.65443420410156,-18.84635353088379,29.493206024169922,0.0
2664,-3.926513671875,-2.831787109375,-4.92822265625,508.0,-502.0,321.0,-24.19942283630371,34.637367248535156,0.0,119.74976348876953,-122.78750610351562,76.67893981933594,-18.84370994567871,29.48961639404297,0.0
2669,-3.919189453125,-2.835205078125,-4.921630859375,498.0,-481.0,266.0,-24.258386611938477,34.60625457763672,0.0,119.78778076171875,-122.82422637939453,76.6992416381836,-18.84223175048828,29.487430572509766,0.0
2674,-3.93115234375,-2.832275390625,-4.92578125,497.0,-483.0,311.0,-24.19977569580078,34.6778450012207,0.0,119.82572174072266,-122.86109924316406,76.72298431396484,-18.840442657470703,29.48558235168457,0.0
2680,-3.931396484375,-2.8310546875,-4.921142578125,504.0,-475.0,308.0,-24.202348709106445,34.70136260986328,0.0,119.87188720703125,-122.90460968017578,76.7511978149414,-18.830610275268555,29.477405548095703,0.0
2685,-3.92578125,-2.831787109375,-4.926513671875,473.0,-490.0,294.0,-24.205520629882812,34.63935089111328,0.0,119.90799713134766,-122.9420166015625,76.77364349365234,-18.830854415893555,29.47492790222168,0.0
2690,-3.930419921875,-2.831298828125,-4.92236328125,492.0,-474.0,319.0,-24.20302391052246,34.68913269042969,0.0,119.945556640625,-122.97820281982422,76.7979965209961,-18.829631805419922,29.474010467529297,0.0
2695,-3.9248046875,-2.833984375,-4.926513671875,503.0,-478.0,296.0,-24.224214553833008,34.62752151489258,0.0,119.98395538330078,-123.01469421386719,76.82059478759766,-18.827720642089844,29.472375869750977,0.0
2700,-3.925048828125,-2.829345703125,-4.92724609375,484.0,-435.0,310.0,-24.1866512298584,34.63709259033203,0.0,120.02090454101562,-123.04789733886719,76.8442611694336,-18.82700538635254,29.474071502685547,0.0
2705,-3.928955078125,-2.834228515625,-4.923583984375,493.0,-486.0,280.0,-24.225051879882812,34.6672477722168,0.0,120.05854034423828,-123.08499908447266,76.86563873291016,-18.825864791870117,29.47208595275879,0.0
2710,-3.925537109375,-2.837646484375,-4.9296875,489.0,-510.0,316.0,-24.241905212402344,34.61095428466797,0.0,120.09587097167969,-123.12393188476562,76.88976287841797,-18.825143814086914,29.467912673950195,0.0
2715,-3.929443359375,-2.830810546875,-4.92041015625,501.0,-502.0,311.0,-24.206594467163086,34.691612243652344,0.0,120.13411712646484,-123.1622543334961,76.91350555419922,-18.82327651977539,29.46491050720215,0.0
2720,-3.93212890625,-2.829833984375,-4.924072265625,486.0,-503.0,306.0,-24.183774948120117,34.69723892211914,0.0,120.17121887207031,-123.20065307617188,76.9368667602539,-18.82240104675293,29.461885452270508,0.0
2725,-3.9306640625,-2.8291015625,-4.91796875,483.0,-511.0,317.0,-24.197553634643555,34.71397018432617,0.0,120.20809173583984,-123.23966217041016,76.96106719970703,-18.82184600830078,29.45838165283203,0.0
2730,-3.927001953125,-2.835693359375,-4.9228515625,486.0,-468.0,320.0,-24.242229461669922,34.65346908569336,0.0,120.24519348144531,-123.275390625,76.9854965209961,-18.821361541748047,29.457752227783203,0.0
2735,-3.9296875,-2.833740234375,-4.920166015625,491.0,-479.0,303.0,-24.228897094726562,34.6873779296875,0.0,120.28267669677734,-123.31195831298828,77.00862884521484,-18.82040786743164,29.456514358520508,0.0
2740,-3.92529296875,-2.827392578125,-4.91748046875,519.0,-481.0,310.0,-24.197317123413086,34.68333053588867,0.0,120.32229614257812,-123.34867858886719,77.03229522705078,-18.817121505737305,29.455101013183594,0.0
2745,-3.9296875,-2.833740234375,-4.925537109375,490.0,-480.0,308.0,-24.214611053466797,34.665409088134766,0.0,120.35970306396484,-123.38532257080078,77.0558090209961,-18.8161678314209,29.453649520874023,0.0
2750,-3.931640625,-2.834228515625,-4.928955078125,511.0,-479.0,297.0,-24.205076217651367,34.663604736328125,0.0,120.39871215820312,-123.42189025878906,77.07848358154297,-18.813560485839844,29.452266693115234,0.0
2755,-3.926513671875,-2.83056640625,-4.927490234375,503.0,-469.0,309.0,-24.192134857177734,34.643226623535156,0.0,120.4371109008789,-123.45769500732422,77.1020736694336,-18.811485290527344,29.45151138305664,0.0
2760,-3.925048828125,-2.832275390625,-4.92578125,464.0,-473.0,296.0,-24.212718963623047,34.636199951171875,0.0,120.4725341796875,-123.49380493164062,77.12467193603516,-18.812515258789062,29.450407028198242,0.0
2765,-3.929931640625,-2.834716796875,-4.928955078125,508.0,-494.0,344.0,-24.21238899230957,34.65080642700195,0.0,120.51131439208984,-123.5315170288086,77.15093231201172,-18.810195922851562,29.447811126708984,0.0
2770,-3.925537109375,-2.830810546875,-4.92626953125,493.0,-485.0,294.0,-24.199298858642578,34.6409797668457,0.0,120.5489501953125,-123.56854248046875,77.17337799072266,-18.808935165405273,29.445844650268555,0.0
2775,-3.92431640625,-2.8330078125,-4.921630859375,492.0,-475.0,279.0,-24.230865478515625,34.646446228027344,0.0,120.58650970458984,-123.60480499267578,77.1946792602539,-18.807966232299805,29.444683074951172,0.0
2780,-3.931884765625,-2.835205078125,-4.925537109375,497.0,-471.0,295.0,-24.221025466918945,34.676944732666016,0.0,120.62445068359375,-123.64076232910156,77.21720123291016,-18.806554794311523,29.444032669067383,0.0
2785,-3.927734375,-2.83203125,-4.927490234375,504.0,-479.0,320.0,-24.200632095336914,34.64811325073242,0.0,120.66292572021484,-123.67733001708984,77.24163055419922,-18.804481506347656,29.442581176757812,0.0
2790,-3.93017578125,-2.83154296875,-4.92529296875,515.0,-473.0,317.0,-24.197603225708008,34.674903869628906,0.0,120.70223999023438,-123.71343994140625,77.26583099365234,-18.801565170288086,29.4417724609375,0.0
2795,-3.93310546875,-2.832763671875,-4.924560546875,495.0,-479.0,291.0,-24.20256996154785,34.69500732421875,0.0,120.74002838134766,-123.75000762939453,77.28804779052734,-18.800212860107422,29.440643310546875,0.0
2800,-3.92529296875,-2.83642578125,-4.924560546875,491.0,-467.0,289.0,-24.246849060058594,34.633094787597656,0.0,120.77751159667969,-123.78565979003906,77.31011199951172,-18.79946517944336,29.440013885498047,0.0
2805,-3.928466796875,-2.83056640625,-4.923095703125,493.0,-490.0,292.0,-24.199678421020508,34.67453384399414,0.0,120.81514739990234,-123.82306671142578,77.33240509033203,-18.79825210571289,29.437917709350586,0.0
2810,-3.926513671875,-2.83251953125,-4.92626953125,495.0,-475.0,298.0,-24.210159301757812,34.64362716674805,0.0,120.85293579101562,-123.85932922363281,77.35515594482422,-18.796960830688477,29.436763763427734,0.0
2816,-3.9208984375,-2.833251953125,-4.93017578125,496.0,-481.0,307.0,-24.21720314025879,34.587615966796875,0.0,120.89080047607422,-123.89604949951172,77.37859344482422,-18.79564666748047,29.434782028198242,0.0
2821,-3.92626953125,-2.8291015625,-4.923095703125,520.0,-476.0,315.0,-24.193252563476562,34.66298294067383,0.0,120.93843078613281,-123.93965148925781,77.4074478149414,-18.784576416015625,29.426576614379883,0.0
2826,-3.931396484375,-2.83056640625,-4.925048828125,493.0,-481.0,306.0,-24.188276290893555,34.6865234375,0.0,120.97606658935547,-123.97637176513672,77.4308090209961,-18.78347396850586,29.425418853759766,0.0
2831,-3.9287109375,-2.83349609375,-4.923095703125,493.0,-473.0,305.0,-24.221328735351562,34.66930389404297,0.0,121.01370239257812,-124.01248168945312,77.45409393310547,-18.782596588134766,29.42475700378418,0.0
2836,-3.930419921875,-2.83349609375,-4.923828125,500.0,-466.0,301.0,-24.21575355529785,34.6779670715332,0.0,121.05187225341797,-124.04805755615234,77.4770736694336,-18.781152725219727,29.4246826171875,0.0
2841,-3.92578125,-2.83056640625,-4.921142578125,488.0,-486.0,282.0,-24.210573196411133,34.66419219970703,0.0,121.08912658691406,-124.08515930175781,77.49860382080078,-18.780588150024414,29.42299461364746,0.0
2846,-3.927734375,-2.83349609375,-4.92236328125,498.0,-454.0,313.0,-24.225351333618164,34.66563415527344,0.0,121.12714385986328,-124.11981201171875,77.52249908447266,-18.77936363220215,29.423749923706055,0.0
2851,-3.927001953125,-2.83203125,-4.922607421875,482.0,-480.0,291.0,-24.215171813964844,34.6630859375,0.0,121.1639404296875,-124.15645599365234,77.54471588134766,-18.779285430908203,29.42250633239746,0.0
2856,-3.927978515625,-2.83154296875,-4.92578125,481.0,-484.0,299.0,-24.200963973999023,34.65791702270508,0.0,121.2006607055664,-124.19340515136719,77.56754302978516,-18.779184341430664,29.420928955078125,0.0
2861,-3.926025390625,-2.83251953125,-4.922119140625,472.0,-476.0,297.0,-24.222240447998047,34.65726852416992,0.0,121.2366943359375,-124.22974395751953,77.59021759033203,-18.779905319213867,29.419960021972656,0.0
2866,-3.931884765625,-2.8388671875,-4.92236328125,479.0,-496.0,323.0,-24.25715446472168,34.68129348754883,0.0,121.27326202392578,-124.26760864257812,77.61487579345703,-18.780319213867188,29.41763687133789,0.0
2871,-3.929443359375,-2.83056640625,-4.926025390625,485.0,-449.0,308.0,-24.189823150634766,34.66920852661133,0.0,121.31028747558594,-124.3018798828125,77.63838958740234,-18.77981948852539,29.418807983398438,0.0
2876,-3.92529296875,-2.833251953125,-4.929443359375,500.0,-487.0,315.0,-24.209842681884766,34.62060546875,0.0,121.34845733642578,-124.33905792236328,77.66243743896484,-18.778316497802734,29.416759490966797,0.0
2881,-3.927734375,-2.8330078125,-4.923828125,507.0,-472.0,296.0,-24.21776008605957,34.66079330444336,0.0,121.38716125488281,-124.37509155273438,77.6850357055664,-18.776342391967773,29.416128158569336,0.0
2886,-3.9248046875,-2.835205078125,-4.926025390625,516.0,-468.0,314.0,-24.234750747680664,34.62664794921875,0.0,121.42655181884766,-124.41082000732422,77.7090072631836,-18.773807525634766,29.415571212768555,0.0
