Time,Acc_X,Acc_Y,Acc_Z,Gyro_X,Gyro_Y,Gyro_Z
5,-2.919433594,-2.811767578,-3.926757813,475,-488,315
10,-2.92578125,-2.812255859,-3.929931641,491,-481,326
15,-2.920166016,-2.811279297,-3.924560547,494,-461,305
20,-2.921875,-2.809326172,-3.919921875,518,-472,304
25,-2.923095703,-2.807617188,-3.927490234,493,-491,318
30,-2.927246094,-2.810546875,-3.930664063,486,-467,312
35,-2.921386719,-2.811035156,-3.919189453,517,-494,334
40,-2.923828125,-2.808105469,-3.915771484,523,-482,307
45,-2.920898438,-2.813232422,-3.916503906,511,-496,304
50,-2.922119141,-2.8125,-3.920654297,515,-470,312
55,-2.921142578,-2.809326172,-3.927490234,493,-512,306
60,-2.923583984,-2.810546875,-3.925292969,496,-490,295
65,-2.922119141,-2.8046875,-3.919921875,512,-456,325
70,-2.921386719,-2.808349609,-3.928710938,490,-481,311
75,-2.922363281,-2.810058594,-3.926757813,485,-464,306
80,-2.924316406,-2.812011719,-3.922851563,474,-506,274
86,-2.922851563,-2.807373047,-3.924804688,510,-498,304
91,-2.926757813,-2.810791016,-3.916992188,497,-483,296
96,-2.925048828,-2.811767578,-3.918701172,511,-505,307
101,-2.918457031,-2.810546875,-3.922363281,514,-480,291
106,-2.920166016,-2.810791016,-3.925292969,496,-475,298
111,-2.918457031,-2.810058594,-3.922607422,505,-475,302
116,-2.921386719,-2.807617188,-3.921142578,495,-469,304
121,-2.924316406,-2.811767578,-3.926025391,504,-442,290
126,-2.922851563,-2.809570313,-3.917724609,508,-466,321
131,-2.922363281,-2.809570313,-3.919433594,478,-508,304
136,-2.923828125,-2.809570313,-3.921386719,514,-502,308
141,-2.925048828,-2.808349609,-3.926513672,489,-510,296
146,-2.922363281,-2.810546875,-3.916259766,497,-492,303
151,-2.923583984,-2.802001953,-3.915771484,501,-485,295
156,-2.920166016,-2.813964844,-3.926513672,489,-490,320
161,-2.924316406,-2.808837891,-3.924560547,490,-495,298
166,-2.923828125,-2.804443359,-3.921386719,481,-454,306
171,-2.91796875,-2.807617188,-3.922851563,480,-473,305
176,-2.919921875,-2.809814453,-3.926025391,502,-482,313
181,-2.922851563,-2.810302734,-3.918701172,516,-472,319
186,-2.917236328,-2.807617188,-3.918457031,513,-495,303
191,-2.919921875,-2.806152344,-3.91796875,514,-498,320
196,-2.919677734,-2.807128906,-3.925537109,512,-492,290
201,-2.920410156,-2.809814453,-3.919189453,497,-501,318
206,-2.919189453,-2.807373047,-3.921142578,485,-470,310
211,-2.920654297,-2.809814453,-3.917236328,491,-467,331
216,-2.920166016,-2.808105469,-3.916503906,487,-473,308
221,-2.926025391,-2.812988281,-3.919433594,475,-470,310
227,-2.919921875,-2.810546875,-3.931640625,491,-493,310
232,-2.921142578,-2.811523438,-3.91796875,482,-485,324
237,-2.921630859,-2.810791016,-3.920166016,524,-499,314
242,-2.921386719,-2.809326172,-3.914306641,519,-482,330
247,-2.919921875,-2.8046875,-3.920898438,495,-490,311
252,-2.915771484,-2.80859375,-3.927978516,492,-479,297
257,-2.918457031,-2.809082031,-3.918945313,494,-489,307
262,-2.923583984,-2.810546875,-3.923095703,496,-472,289
267,-2.920410156,-2.810302734,-3.922119141,489,-482,292
272,-2.920410156,-2.812011719,-3.919189453,484,-483,319
277,-2.923095703,-2.806152344,-3.916259766,503,-497,295
282,-2.923828125,-2.810058594,-3.924316406,494,-482,316
287,-2.922119141,-2.808105469,-3.919677734,520,-529,300
292,-2.919921875,-2.811035156,-3.917236328,513,-493,323
297,-2.923095703,-2.810058594,-3.919433594,501,-475,311
302,-2.922851563,-2.809326172,-3.922607422,494,-473,297
307,-2.919433594,-2.809326172,-3.921875,469,-473,304
312,-2.922851563,-2.814453125,-3.914794922,492,-456,296
317,-2.922607422,-2.809814453,-3.915527344,498,-482,299
322,-2.918212891,-2.807128906,-3.922851563,486,-474,283
327,-2.924560547,-2.809326172,-3.918457031,488,-489,294
332,-2.920898438,-2.807861328,-3.924560547,475,-502,304
337,-2.923339844,-2.813964844,-3.919677734,506,-514,316
342,-2.917236328,-2.810058594,-3.927734375,486,-489,325
347,-2.918945313,-2.809082031,-3.921386719,493,-497,297
352,-2.921386719,-2.807373047,-3.923583984,506,-490,306
357,-2.924072266,-2.811767578,-3.929931641,500,-489,292
362,-2.919921875,-2.811523438,-3.921386719,488,-459,283
368,-2.923339844,-2.809814453,-3.921630859,482,-500,294
373,-2.920410156,-2.80859375,-3.930175781,478,-461,302
378,-2.921386719,-2.808837891,-3.921386719,499,-511,318
383,-2.919433594,-2.807373047,-3.921142578,487,-507,300
388,-2.922363281,-2.807861328,-3.928466797,482,-514,292
393,-2.923095703,-2.80859375,-3.911865234,518,-498,317
398,-2.918701172,-2.809814453,-3.917480469,502,-483,297
403,-2.921386719,-2.809814453,-3.92578125,515,-472,298
408,-2.923339844,-2.809082031,-3.920166016,481,-435,281
413,-2.924560547,-2.811279297,-3.923583984,517,-466,319
418,-2.920898438,-2.809814453,-3.922363281,483,-476,318
423,-2.918945313,-2.806884766,-3.920898438,498,-496,303
428,-2.922851563,-2.809814453,-3.914550781,495,-480,294
433,-2.921875,-2.809326172,-3.922119141,492,-487,305
438,-2.921386719,-2.809814453,-3.917480469,496,-521,305
443,-2.918457031,-2.811767578,-3.920898438,487,-501,316
448,-2.920898438,-2.807617188,-3.925537109,504,-480,300
453,-2.918945313,-2.807861328,-3.916992188,499,-452,297
458,-2.920898438,-2.80859375,-3.914306641,495,-487,319
463,-2.919189453,-2.810546875,-3.922363281,508,-468,303
468,-2.922119141,-2.809326172,-3.924804688,498,-492,305
473,-2.921875,-2.811035156,-3.923095703,521,-515,279
478,-2.920898438,-2.809082031,-3.9296875,501,-498,314
483,-2.921386719,-2.807373047,-3.922363281,489,-501,310
488,-2.920898438,-2.807373047,-3.916015625,489,-465,299
493,-2.921142578,-2.808349609,-3.917724609,504,-505,331
498,-2.920166016,-2.807373047,-3.923583984,497,-491,294
503,-2.920654297,-2.809326172,-3.925292969,472,-453,306
509,-2.924316406,-2.810302734,-3.922119141,489,-466,321
514,-2.920654297,-2.808349609,-3.925292969,493,-477,296
519,-2.921875,-2.80859375,-3.929199219,503,-468,282
524,-2.922119141,-2.809326172,-3.918701172,486,-492,337
529,-2.919921875,-2.810058594,-3.914794922,500,-500,298
534,-2.922363281,-2.807617188,-3.925292969,485,-501,313
539,-2.921630859,-2.808837891,-3.924560547,475,-493,296
544,-2.918945313,-2.806884766,-3.921386719,507,-478,281
549,-2.918945313,-2.80859375,-3.918701172,505,-481,292
554,-2.922119141,-2.807128906,-3.926025391,506,-473,298
559,-2.923828125,-2.811035156,-3.919677734,478,-459,320
564,-2.924316406,-2.806152344,-3.922851563,502,-450,318
569,-2.923583984,-2.810546875,-3.926513672,494,-462,313
574,-2.923583984,-2.812255859,-3.918457031,485,-501,309
579,-2.924316406,-2.807861328,-3.918945313,507,-468,307
584,-2.921142578,-2.808349609,-3.927978516,505,-497,303
589,-2.919921875,-2.808349609,-3.925292969,507,-511,290
594,-2.922851563,-2.809570313,-3.915771484,516,-522,299
599,-2.924560547,-2.809082031,-3.923095703,511,-474,326
604,-2.915039063,-2.806884766,-3.919433594,479,-473,305
609,-2.917480469,-2.811767578,-3.921142578,490,-480,306
614,-2.921386719,-2.806152344,-3.921142578,489,-445,332
619,-2.922363281,-2.808105469,-3.922607422,495,-474,295
624,-2.923583984,-2.809814453,-3.916259766,494,-457,297
629,-2.923095703,-2.806640625,-3.928955078,506,-488,303
634,-2.920898438,-2.810791016,-3.924560547,489,-474,303
639,-2.921875,-2.811767578,-3.919433594,499,-482,322
644,-2.922607422,-2.810302734,-3.920898438,502,-476,322
650,-2.918945313,-2.811523438,-3.919433594,496,-478,293
655,-2.921630859,-2.805175781,-3.923583984,509,-450,304
660,-2.920898438,-2.812011719,-3.918701172,517,-459,305
665,-2.921142578,-2.805664063,-3.919677734,470,-456,314
670,-2.921142578,-2.810546875,-3.920410156,493,-473,314
675,-2.921630859,-2.810546875,-3.922363281,479,-478,304
680,-2.925048828,-2.807128906,-3.920654297,507,-497,303
685,-2.923828125,-2.812255859,-3.922607422,496,-503,286
690,-2.926025391,-2.807128906,-3.920166016,511,-491,290
695,-2.923828125,-2.812988281,-3.916748047,487,-477,298
700,-2.921630859,-2.811279297,-3.918212891,482,-507,289
705,-2.921142578,-2.807617188,-3.922363281,495,-484,314
710,-2.919433594,-2.807861328,-3.918457031,493,-478,299
715,-2.923095703,-2.810302734,-3.91796875,489,-473,302
720,-2.923583984,-2.808349609,-3.923828125,488,-486,313
725,-2.920410156,-2.810546875,-3.919677734,507,-480,311
730,-2.923583984,-2.810302734,-3.921386719,500,-483,292
735,-2.921630859,-2.811523438,-3.921875,494,-509,295
740,-2.918945313,-2.8125,-3.920410156,500,-492,321
745,-2.921386719,-2.807373047,-3.924560547,497,-491,318
750,-2.920166016,-2.80859375,-3.922363281,512,-465,277
755,-2.924316406,-2.808349609,-3.915771484,499,-502,303
760,-2.922607422,-2.805908203,-3.924560547,486,-476,312
765,-2.920654297,-2.8125,-3.925048828,476,-454,303
770,-2.923828125,-2.804199219,-3.917724609,502,-476,299
775,-2.924072266,-2.810302734,-3.919433594,484,-469,289
780,-2.920410156,-2.812011719,-3.916992188,499,-487,314
786,-2.923828125,-2.810546875,-3.923583984,507,-488,299
791,-2.922851563,-2.808349609,-3.922119141,521,-491,286
796,-2.921875,-2.810546875,-3.922607422,517,-502,309
801,-2.920898438,-2.811767578,-3.916259766,493,-507,306
806,-2.921386719,-2.810302734,-3.924560547,506,-495,294
811,-2.919189453,-2.806884766,-3.918457031,473,-479,295
816,-2.922119141,-2.809814453,-3.927734375,490,-468,306
821,-2.926513672,-2.809326172,-3.923095703,498,-464,301
826,-2.923583984,-2.811035156,-3.916259766,517,-488,309
831,-2.920898438,-2.80859375,-3.920654297,486,-490,325
836,-2.922119141,-2.808837891,-3.923583984,527,-529,325
841,-2.921142578,-2.811767578,-3.919921875,511,-499,303
846,-2.921630859,-2.809326172,-3.920410156,489,-494,307
851,-2.920166016,-2.808837891,-3.924804688,514,-454,311
856,-2.921142578,-2.812011719,-3.922851563,502,-447,308
861,-2.921875,-2.810058594,-3.917236328,475,-479,301
866,-2.919677734,-2.80859375,-3.927490234,505,-466,332
871,-2.922119141,-2.813232422,-3.918457031,492,-440,310
876,-2.920654297,-2.809570313,-3.929443359,489,-482,303
881,-2.923828125,-2.810058594,-3.920166016,500,-492,308
886,-2.923583984,-2.809082031,-3.922363281,476,-481,322
891,-2.921142578,-2.806396484,-3.922363281,483,-490,303
896,-2.922851563,-2.808349609,-3.92578125,515,-526,309
901,-2.922363281,-2.809570313,-3.920166016,516,-502,324
906,-2.920654297,-2.808837891,-3.920898438,488,-489,303
911,-2.923583984,-2.807861328,-3.916992188,491,-468,321
916,-2.922363281,-2.813476563,-3.925537109,484,-461,315
921,-2.923095703,-2.810546875,-3.928222656,502,-481,310
927,-2.918945313,-2.813476563,-3.919921875,465,-477,313
932,-2.921142578,-2.812255859,-3.922363281,522,-485,287
937,-2.920654297,-2.810791016,-3.921142578,493,-514,335
942,-2.920654297,-2.811279297,-3.921875,510,-494,309
947,-2.918212891,-2.808837891,-3.921875,527,-495,294
952,-2.920654297,-2.809570313,-3.923828125,502,-479,310
957,-2.922119141,-2.809082031,-3.919677734,509,-505,291
962,-2.920410156,-2.806640625,-3.923583984,486,-465,303
967,-2.922363281,-2.812744141,-3.925537109,469,-492,306
972,-2.924804688,-2.807128906,-3.921630859,488,-498,308
977,-2.921386719,-2.805175781,-3.923095703,495,-486,320
982,-2.924072266,-2.810302734,-3.921386719,510,-479,307
987,-2.923583984,-2.808105469,-3.923339844,513,-510,310
992,-2.919433594,-2.809814453,-3.919677734,498,-496,304
997,-2.920410156,-2.806396484,-3.918945313,500,-486,306
1002,-2.924316406,-2.808349609,-3.933105469,488,-492,312
1007,-2.923095703,-2.808349609,-3.921630859,493,-464,300
1012,-2.917480469,-2.808837891,-3.925048828,503,-478,300
1017,-2.919189453,-2.810058594,-3.923339844,496,-470,309
1022,-2.921630859,-2.806396484,-3.926513672,496,-486,294
1027,-2.922119141,-2.810058594,-3.926757813,490,-469,312
1032,-2.917236328,-2.809570313,-3.927246094,494,-479,300
1037,-2.923583984,-2.808837891,-3.917724609,489,-485,295
1042,-2.918212891,-2.811523438,-3.919677734,485,-477,301
1047,-2.916503906,-2.809814453,-3.919921875,518,-499,279
1052,-2.921630859,-2.804931641,-3.915771484,502,-460,282
1057,-2.919433594,-2.808837891,-3.9140625,477,-481,280
1062,-2.920898438,-2.807128906,-3.923583984,509,-484,319
1068,-2.920898438,-2.812988281,-3.919189453,515,-461,309
1073,-2.922607422,-2.808105469,-3.924316406,499,-481,310
1078,-2.924316406,-2.811523438,-3.9296875,486,-494,293
1083,-2.920898438,-2.812011719,-3.926513672,469,-470,288
1088,-2.922607422,-2.810302734,-3.923339844,506,-502,288
1093,-2.920654297,-2.809570313,-3.918701172,513,-492,304
1098,-2.919433594,-2.805419922,-3.918701172,491,-496,304
1103,-2.919921875,-2.811279297,-3.919921875,498,-474,296
1108,-2.922851563,-2.814208984,-3.916259766,487,-491,301
1113,-2.917236328,-2.809814453,-3.923828125,487,-479,315
1118,-2.921875,-2.806152344,-3.924560547,495,-456,306
1123,-2.926269531,-2.80859375,-3.929443359,513,-482,312
1128,-2.922851563,-2.810791016,-3.922851563,502,-473,298
1133,-2.923828125,-2.806152344,-3.919433594,497,-480,307
1138,-2.918945313,-2.809326172,-3.928955078,488,-483,312
1143,-2.918945313,-2.809326172,-3.923828125,477,-502,317
1148,-2.921142578,-2.810546875,-3.9140625,502,-487,309
1153,-2.923828125,-2.809814453,-3.919189453,484,-488,307
1158,-2.921142578,-2.808837891,-3.918945313,507,-488,318
1163,-2.921386719,-2.809082031,-3.922851563,486,-494,319
1168,-2.922607422,-2.808837891,-3.924072266,505,-467,302
1173,-2.920410156,-2.808105469,-3.922363281,475,-476,317
1178,-2.920654297,-2.812744141,-3.9296875,483,-492,304
1183,-2.924560547,-2.814453125,-3.927490234,523,-492,323
1188,-2.920410156,-2.809082031,-3.922851563,493,-473,323
1193,-2.923095703,-2.805175781,-3.918701172,501,-490,296
1198,-2.919189453,-2.806884766,-3.923828125,504,-455,296
1203,-2.922607422,-2.809082031,-3.924804688,487,-505,287
1209,-2.921386719,-2.810302734,-3.929931641,489,-475,296
1214,-2.923339844,-2.812255859,-3.922851563,515,-468,306
1219,-2.922363281,-2.808105469,-3.922607422,490,-486,309
1224,-2.923339844,-2.810791016,-3.921386719,517,-485,274
1229,-2.920410156,-2.805175781,-3.924316406,498,-456,297
1234,-2.922119141,-2.808837891,-3.918212891,505,-486,317
1239,-2.925048828,-2.807861328,-3.927978516,491,-487,321
1244,-2.922607422,-2.809326172,-3.921875,494,-466,304
1249,-2.924316406,-2.8125,-3.923828125,484,-492,322
1254,-2.922363281,-2.810791016,-3.927490234,501,-487,300
1259,-2.923095703,-2.809082031,-3.919921875,501,-473,297
1264,-2.921142578,-2.80859375,-3.923339844,481,-479,294
1269,-2.918945313,-2.812255859,-3.91796875,507,-473,302
1274,-2.922851563,-2.810302734,-3.922607422,492,-479,310
1279,-2.923583984,-2.810791016,-3.918212891,504,-492,291
1284,-2.924316406,-2.811279297,-3.922119141,511,-496,293
1289,-2.919677734,-2.814941406,-3.919189453,495,-478,317
1294,-2.924072266,-2.808837891,-3.914794922,499,-459,302
1299,-2.923095703,-2.810302734,-3.923828125,513,-484,324
1304,-2.921630859,-2.808837891,-3.921630859,497,-466,300
1309,-2.91796875,-2.808837891,-3.923339844,497,-486,313
1314,-2.922363281,-2.809814453,-3.917480469,502,-495,299
1319,-2.921142578,-2.807128906,-3.928222656,508,-476,324
1324,-2.919189453,-2.809570313,-3.926025391,524,-474,300
1329,-2.921630859,-2.812255859,-3.91796875,499,-503,299
1334,-2.922119141,-2.811767578,-3.922363281,507,-476,326
1339,-2.923095703,-2.808105469,-3.920410156,490,-492,316
1345,-2.920898438,-2.810302734,-3.923095703,486,-505,312
1350,-2.921875,-2.811767578,-3.923339844,499,-462,312
1355,-2.918701172,-2.80859375,-3.920166016,503,-462,313
1360,-2.921630859,-2.807373047,-3.923339844,483,-473,305
1365,-2.922119141,-2.812988281,-3.920166016,499,-468,308
1370,-2.921875,-2.807861328,-3.929443359,477,-482,300
1375,-2.923095703,-2.812011719,-3.917480469,502,-512,321
1380,-2.925537109,-2.811767578,-3.927734375,495,-488,302
1385,-2.922119141,-2.808837891,-3.933105469,486,-495,293
1390,-2.920410156,-2.813232422,-3.915527344,501,-483,281
1395,-2.921875,-2.809814453,-3.916259766,498,-492,327
1400,-2.925048828,-2.810546875,-3.921386719,504,-472,290
1405,-2.919189453,-2.810791016,-3.918457031,496,-486,317
1410,-2.921142578,-2.811523438,-3.923583984,500,-495,286
1415,-2.924560547,-2.809570313,-3.920654297,487,-486,301
1420,-2.921875,-2.806640625,-3.920898438,488,-478,299
1425,-2.925292969,-2.813476563,-3.919433594,503,-469,304
1430,-2.919433594,-2.810058594,-3.920166016,513,-475,295
1435,-2.924316406,-2.810546875,-3.926513672,509,-480,305
1440,-2.920166016,-2.808349609,-3.927978516,508,-491,318
1445,-2.919677734,-2.809570313,-3.918457031,510,-485,307
1450,-2.919433594,-2.808349609,-3.9296875,483,-484,318
1455,-2.923095703,-2.809082031,-3.920898438,503,-470,309
1460,-2.921142578,-2.809326172,-3.914794922,498,-484,292
1465,-2.92578125,-2.812255859,-3.927490234,501,-466,288
1470,-2.918701172,-2.807617188,-3.919433594,490,-486,287
1475,-2.923828125,-2.813232422,-3.916748047,480,-477,298
1480,-2.923339844,-2.808349609,-3.924072266,486,-482,315
1486,-2.921630859,-2.808105469,-3.923583984,496,-514,306
1491,-2.918701172,-2.810058594,-3.914306641,495,-484,294
1496,-2.921630859,-2.808105469,-3.922119141,507,-479,309
1501,-2.919677734,-2.808105469,-3.920898438,508,-490,298
1506,-2.919921875,-2.808105469,-3.922363281,489,-498,297
1511,-2.923583984,-2.809326172,-3.923339844,506,-481,319
1516,-2.920898438,-2.810058594,-3.920166016,500,-493,298
1521,-2.919921875,-2.807617188,-3.924072266,509,-458,338
1526,-2.920166016,-2.806396484,-3.921875,510,-470,312
1531,-2.927490234,-2.813476563,-3.916503906,490,-453,300
1536,-2.923583984,-2.810058594,-3.916259766,513,-493,315
1541,-2.924804688,-2.808105469,-3.912841797,467,-497,310
1546,-2.920898438,-2.811035156,-3.930908203,504,-496,317
1551,-2.919433594,-2.809082031,-3.925537109,499,-486,306
1556,-2.924316406,-2.808105469,-3.922119141,497,-493,304
1561,-2.922363281,-2.809814453,-3.921386719,497,-448,299
1566,-2.920654297,-2.808349609,-3.924804688,508,-463,313
1571,-2.923828125,-2.806884766,-3.920898438,503,-445,307
1576,-2.921875,-2.807861328,-3.919677734,496,-472,307
1581,-2.922607422,-2.809570313,-3.918457031,491,-462,285
1586,-2.922119141,-2.809814453,-3.927490234,494,-470,298
1591,-2.921142578,-2.80859375,-3.915039063,487,-505,275
1596,-2.924316406,-2.807861328,-3.920166016,505,-482,307
1601,-2.918701172,-2.809570313,-3.924316406,525,-488,311
1606,-2.919433594,-2.808105469,-3.921386719,506,-481,310
1611,-2.919189453,-2.809082031,-3.922851563,493,-481,322
1616,-2.923828125,-2.808349609,-3.922119141,489,-500,290
1621,-2.923095703,-2.806884766,-3.920898438,497,-468,317
1627,-2.923583984,-2.811035156,-3.924072266,495,-474,286
1632,-2.924560547,-2.80859375,-3.918701172,491,-465,286
1637,-2.925292969,-2.806884766,-3.921875,504,-496,305
1642,-2.921875,-2.809326172,-3.927001953,504,-492,283
1647,-2.918212891,-2.809326172,-3.919189453,501,-491,290
1652,-2.920654297,-2.808105469,-3.927490234,529,-497,303
1657,-2.923828125,-2.812988281,-3.923339844,517,-495,312
1662,-2.920410156,-2.809326172,-3.925537109,500,-454,331
1667,-2.925537109,-2.806152344,-3.919189453,488,-468,309
1672,-2.921875,-2.807373047,-3.915771484,488,-464,310
1677,-2.923339844,-2.807373047,-3.924804688,486,-478,309
1682,-2.925537109,-2.810546875,-3.920654297,499,-481,304
1687,-2.921142578,-2.812255859,-3.923828125,484,-503,318
1692,-2.922119141,-2.808349609,-3.91796875,491,-515,316
1697,-2.924072266,-2.810791016,-3.925537109,486,-520,291
1702,-2.920410156,-2.808837891,-3.921386719,498,-516,306
1707,-2.916748047,-2.809570313,-3.915771484,490,-514,309
1712,-2.916015625,-2.80859375,-3.924804688,484,-491,305
1717,-2.922119141,-2.811767578,-3.924560547,497,-484,287
1722,-2.922363281,-2.810791016,-3.922119141,485,-479,303
1727,-2.922607422,-2.809814453,-3.928955078,493,-471,298
1732,-2.921386719,-2.812988281,-3.926025391,487,-480,289
1737,-2.922851563,-2.807128906,-3.922363281,505,-507,303
1742,-2.921386719,-2.813476563,-3.921142578,476,-506,308
1747,-2.924560547,-2.807128906,-3.920410156,492,-512,315
1752,-2.922607422,-2.810058594,-3.921630859,497,-501,306
1757,-2.918212891,-2.8125,-3.917480469,508,-482,300
1762,-2.921630859,-2.807861328,-3.920898438,513,-469,297
1768,-2.91796875,-2.811279297,-3.918212891,480,-468,300
1773,-2.923828125,-2.811767578,-3.921386719,479,-456,296
1778,-2.921142578,-2.811523438,-3.922363281,478,-469,329
1783,-2.922851563,-2.810302734,-3.928222656,500,-495,307
1788,-2.920654297,-2.812744141,-3.917236328,513,-505,297
1793,-2.924560547,-2.811279297,-3.921142578,509,-501,300
1798,-2.923095703,-2.809814453,-3.927734375,505,-507,295
1803,-2.919433594,-2.809570313,-3.927734375,493,-504,286
1808,-2.918945313,-2.806396484,-3.922607422,489,-479,281
1813,-2.919433594,-2.811767578,-3.925537109,500,-466,287
1818,-2.923339844,-2.811523438,-3.924072266,496,-477,307
1823,-2.921630859,-2.809082031,-3.922119141,484,-479,285
1828,-2.923828125,-2.809082031,-3.922851563,495,-463,301
1833,-2.925048828,-2.807617188,-3.920166016,504,-465,290
1838,-2.923339844,-2.809082031,-3.917236328,499,-478,305
1843,-2.921386719,-2.812011719,-3.921875,489,-508,292
1848,-2.921630859,-2.805419922,-3.924804688,503,-498,318
1853,-2.920410156,-2.806884766,-3.922363281,496,-482,318
1858,-2.918945313,-2.811035156,-3.921875,497,-493,304
1863,-2.920410156,-2.809814453,-3.926513672,501,-488,313
1868,-2.917480469,-2.815917969,-3.926269531,495,-471,290
1873,-2.926757813,-2.809814453,-3.919189453,480,-464,307
1878,-2.925292969,-2.806396484,-3.924072266,506,-457,299
1883,-2.921386719,-2.807128906,-3.914794922,505,-468,309
1888,-2.922363281,-2.809570313,-3.916259766,496,-498,301
1893,-2.922119141,-2.809326172,-3.924072266,526,-500,306
1898,-2.920166016,-2.810546875,-3.918457031,510,-496,320
1903,-2.922119141,-2.811279297,-3.917724609,498,-499,307
1909,-2.921142578,-2.809082031,-3.917236328,501,-477,320
1914,-2.917236328,-2.807373047,-3.917724609,512,-463,307
1919,-2.920654297,-2.806640625,-3.926269531,497,-463,324
1924,-2.922363281,-2.809326172,-3.919677734,480,-464,296
1929,-2.919677734,-2.809570313,-3.925537109,487,-472,308
1934,-2.922851563,-2.809326172,-3.919921875,490,-462,286
1939,-2.923095703,-2.806640625,-3.921386719,487,-491,298
1944,-2.921386719,-2.811035156,-3.921142578,497,-490,308
1949,-2.919921875,-2.809814453,-3.927001953,482,-508,325
1954,-2.922607422,-2.810058594,-3.921630859,506,-518,293
1959,-2.919921875,-2.810302734,-3.918212891,490,-474,317
1964,-2.919189453,-2.809326172,-3.919433594,494,-484,303
1969,-2.920410156,-2.809814453,-3.922119141,496,-517,300
1974,-2.920166016,-2.807128906,-3.920898438,486,-485,300
1979,-2.922851563,-2.812744141,-3.927001953,483,-495,322
1984,-2.920166016,-2.810546875,-3.919189453,490,-488,315
1989,-2.921630859,-2.808105469,-3.924316406,485,-498,326
1994,-2.921142578,-2.804443359,-3.924072266,491,-475,295
1999,-2.922851563,-2.80859375,-3.920898438,489,-500,308
2004,-2.917724609,-2.809326172,-3.915527344,489,-495,295
2009,-2.921142578,-2.807373047,-3.916748047,489,-507,281
2014,-2.919677734,-2.808349609,-3.920898438,484,-502,297
2019,-2.920166016,-2.812744141,-3.929931641,505,-473,296
2024,-2.921875,-2.808349609,-3.920410156,505,-468,293
2029,-2.919433594,-2.808349609,-3.926269531,511,-464,321
2034,-2.921630859,-2.812011719,-3.922607422,502,-470,286
2039,-2.922607422,-2.810546875,-3.921386719,510,-500,300
2045,-2.923339844,-2.809082031,-3.926269531,502,-495,310
2050,-2.923095703,-2.806152344,-3.9140625,503,-478,312
2055,-2.921875,-2.810302734,-3.919189453,496,-504,304
2060,-2.919433594,-2.808105469,-3.922607422,515,-482,300
2065,-2.920898438,-2.808349609,-3.921630859,499,-452,305
2070,-2.919189453,-2.806152344,-3.915527344,503,-479,309
2075,-2.924316406,-2.811279297,-3.923828125,492,-467,310
2080,-2.92578125,-2.807373047,-3.927246094,495,-488,305
2085,-2.924072266,-2.809814453,-3.925048828,489,-474,322
2090,-2.919677734,-2.809326172,-3.915283203,513,-498,314
2095,-2.921142578,-2.808349609,-3.927001953,493,-481,285
2100,-2.918457031,-2.805908203,-3.922363281,516,-494,303
2105,-2.923095703,-2.810791016,-3.918212891,484,-492,315
2110,-2.91796875,-2.809082031,-3.922119141,477,-477,298
2115,-2.919189453,-2.813720703,-3.916015625,488,-472,306
2120,-2.924560547,-2.808105469,-3.919921875,474,-472,326
2125,-2.920166016,-2.808105469,-3.92578125,500,-478,293
2130,-2.924072266,-2.804931641,-3.922851563,501,-463,294
2135,-2.924316406,-2.814208984,-3.916259766,499,-497,285
2140,-2.922607422,-2.808105469,-3.921875,511,-492,319
2145,-2.922607422,-2.813476563,-3.923828125,513,-503,309
2150,-2.920166016,-2.810302734,-3.927734375,514,-497,307
2155,-2.921875,-2.808105469,-3.920166016,494,-496,288
2160,-2.923828125,-2.808105469,-3.921875,507,-489,300
2165,-2.919677734,-2.808837891,-3.921142578,497,-458,297
2170,-2.918457031,-2.810302734,-3.927001953,490,-467,286
2175,-2.921386719,-2.806640625,-3.921142578,490,-503,312
2180,-2.926269531,-2.808105469,-3.923828125,479,-481,305
2186,-2.923095703,-2.8125,-3.920898438,487,-505,301
2191,-2.926269531,-2.80859375,-3.923339844,483,-520,322
2196,-2.923339844,-2.80859375,-3.928466797,523,-464,313
2201,-2.922607422,-2.807373047,-3.921142578,527,-479,305
2206,-2.920898438,-2.806884766,-3.915527344,476,-470,311
2211,-2.922119141,-2.809570313,-3.919921875,469,-479,315
2216,-2.920410156,-2.809082031,-3.924560547,512,-459,300
2221,-2.920410156,-2.812011719,-3.919433594,488,-480,297
2226,-2.920898438,-2.809570313,-3.922119141,504,-480,321
2231,-2.918457031,-2.807861328,-3.920410156,489,-479,294
2236,-2.917236328,-2.808105469,-3.912353516,510,-496,308
2241,-2.925292969,-2.809814453,-3.922851563,522,-492,317
2246,-2.919921875,-2.810302734,-3.923339844,503,-503,325
2251,-2.922119141,-2.807617188,-3.92578125,486,-506,287
2256,-2.920410156,-2.809814453,-3.921142578,511,-457,318
2261,-2.922363281,-2.810058594,-3.919921875,506,-488,297
2266,-2.918212891,-2.811279297,-3.913085938,492,-486,311
2271,-2.922119141,-2.810058594,-3.916503906,485,-466,315
2276,-2.923095703,-2.810546875,-3.916259766,503,-491,306
2281,-2.921875,-2.809082031,-3.926269531,501,-484,324
2286,-2.922851563,-2.808105469,-3.925048828,490,-494,308
2291,-2.923095703,-2.813720703,-3.91796875,491,-489,300
2296,-2.920898438,-2.810302734,-3.923583984,504,-470,313
2301,-2.921875,-2.807861328,-3.922607422,486,-490,314
2306,-2.921875,-2.807128906,-3.920410156,502,-492,283
2311,-2.924072266,-2.810546875,-3.926269531,497,-476,294
2316,-2.917480469,-2.808349609,-3.926513672,502,-465,303
2321,-2.919677734,-2.811279297,-3.924316406,477,-477,316
2327,-2.922363281,-2.807861328,-3.922119141,507,-478,305
2332,-2.922363281,-2.809570313,-3.918457031,490,-465,308
2337,-2.921386719,-2.814453125,-3.924560547,508,-490,318
2342,-2.921386719,-2.809570313,-3.918457031,508,-473,286
2347,-2.919189453,-2.810302734,-3.930908203,503,-493,324
2352,-2.922363281,-2.809082031,-3.920898438,512,-496,312
2357,-2.924560547,-2.808349609,-3.919189453,502,-471,296
2362,-2.921630859,-2.807861328,-3.927246094,498,-474,296
2367,-2.922363281,-2.8125,-3.922607422,493,-458,307
2372,-2.921630859,-2.807617188,-3.924316406,489,-478,304
2377,-2.920654297,-2.808105469,-3.920898438,509,-458,294
2382,-2.924804688,-2.807128906,-3.922119141,488,-508,303
2387,-2.921875,-2.807373047,-3.921386719,484,-496,318
2392,-2.923095703,-2.810546875,-3.924072266,486,-487,312
2397,-2.921875,-2.805908203,-3.921142578,511,-485,329
2402,-2.920410156,-2.811523438,-3.920410156,503,-492,308
2407,-2.919677734,-2.808349609,-3.921875,493,-494,282
2412,-2.920166016,-2.808349609,-3.923583984,487,-484,302
2417,-2.921386719,-2.805908203,-3.923095703,478,-473,343
2422,-2.923339844,-2.806152344,-3.919433594,493,-489,299
2427,-2.924316406,-2.810058594,-3.927001953,487,-488,290
2432,-2.924316406,-2.810058594,-3.916503906,509,-479,293
2437,-2.919189453,-2.812988281,-3.922119141,509,-468,305
2442,-2.922119141,-2.804931641,-3.915283203,505,-484,317
2447,-2.921630859,-2.805175781,-3.924804688,498,-500,315
2452,-2.920898438,-2.809326172,-3.920410156,503,-498,290
2457,-2.920166016,-2.807128906,-3.926757813,491,-490,309
2462,-2.921386719,-2.807861328,-3.922119141,485,-478,313
2468,-2.923583984,-2.811279297,-3.923583984,491,-481,311
2473,-2.924316406,-2.813232422,-3.917724609,473,-496,299
2478,-2.924072266,-2.812255859,-3.921875,487,-460,310
2483,-2.922119141,-2.806152344,-3.923828125,491,-471,316
2488,-2.923583984,-2.814941406,-3.919433594,500,-487,292
2493,-2.92578125,-2.811279297,-3.933105469,485,-487,324
2498,-2.922607422,-2.810302734,-3.928222656,506,-486,289
2503,-2.921630859,-2.812255859,-3.919189453,494,-493,279
2508,-2.920410156,-2.807617188,-3.921875,501,-508,301
2513,-2.918701172,-2.809082031,-3.922607422,486,-490,324
2518,-2.919189453,-2.810791016,-3.916748047,473,-482,302
2523,-2.921630859,-2.808837891,-3.923583984,477,-472,303
2528,-2.924316406,-2.809326172,-3.927734375,511,-477,308
2533,-2.918212891,-2.808349609,-3.920898438,502,-474,320
2538,-2.922119141,-2.811523438,-3.923095703,490,-487,310
2543,-2.926757813,-2.811523438,-3.922119141,462,-494,300
2548,-2.926757813,-2.811279297,-3.920654297,510,-498,326
2553,-2.924560547,-2.809814453,-3.918212891,501,-508,302
2558,-2.920898438,-2.812988281,-3.922363281,502,-504,299
2563,-2.922607422,-2.808837891,-3.924804688,509,-486,294
2568,-2.919677734,-2.809082031,-3.923095703,495,-469,309
2573,-2.926513672,-2.807373047,-3.919677734,484,-473,304
2578,-2.925048828,-2.810791016,-3.924560547,494,-474,313
2583,-2.918457031,-2.814208984,-3.924804688,499,-500,299
2588,-2.925048828,-2.812011719,-3.929931641,486,-490,305
2593,-2.922851563,-2.808837891,-3.923095703,501,-511,298
2598,-2.923583984,-2.80859375,-3.923339844,494,-507,317
2604,-2.921630859,-2.809082031,-3.916015625,514,-471,306
2609,-2.918212891,-2.805908203,-3.921386719,493,-483,303
2614,-2.920410156,-2.807617188,-3.923583984,502,-505,303
2619,-2.924560547,-2.812255859,-3.920898438,494,-482,305
2624,-2.921142578,-2.812744141,-3.919433594,500,-451,302
2629,-2.924804688,-2.810791016,-3.920654297,478,-470,301
2634,-2.923583984,-2.812255859,-3.922607422,479,-503,289
2639,-2.923339844,-2.810058594,-3.917724609,495,-474,325
2644,-2.921875,-2.810058594,-3.924072266,507,-509,305
2649,-2.921875,-2.811035156,-3.917236328,510,-500,324
2654,-2.92578125,-2.807128906,-3.928710938,500,-494,297
2659,-2.916748047,-2.811035156,-3.925537109,500,-501,315
2664,-2.923828125,-2.812988281,-3.923583984,498,-478,299
2669,-2.922851563,-2.807617188,-3.923339844,499,-470,301
2674,-2.921386719,-2.809570313,-3.925537109,490,-448,313
2679,-2.921630859,-2.811279297,-3.923095703,516,-492,313
2684,-2.921875,-2.810302734,-3.922119141,487,-487,300
2689,-2.921630859,-2.809814453,-3.920166016,504,-514,308
2694,-2.920166016,-2.809570313,-3.923095703,504,-504,288
2699,-2.920166016,-2.808105469,-3.925537109,481,-504,317
2704,-2.920410156,-2.806884766,-3.927734375,491,-491,285
2709,-2.920166016,-2.806884766,-3.926757813,487,-489,300
2714,-2.921875,-2.806152344,-3.928466797,495,-468,306
2719,-2.923339844,-2.809814453,-3.919433594,494,-485,308
2724,-2.923583984,-2.811523438,-3.930419922,494,-462,326
2729,-2.923339844,-2.809082031,-3.928955078,507,-492,321
2734,-2.919677734,-2.809570313,-3.917480469,509,-479,281
2739,-2.923828125,-2.811035156,-3.921630859,488,-496,288
2745,-2.920898438,-2.808105469,-3.916748047,507,-502,302
2750,-2.922851563,-2.807617188,-3.916259766,511,-490,310
2755,-2.921386719,-2.809814453,-3.920898438,492,-479,300
2760,-2.919433594,-2.810546875,-3.922607422,494,-496,323
2765,-2.919921875,-2.809814453,-3.925048828,512,-458,286
2770,-2.919921875,-2.812011719,-3.920898438,482,-450,292
2775,-2.923583984,-2.812988281,-3.919433594,494,-449,295
2780,-2.918457031,-2.806396484,-3.920166016,486,-497,301
2785,-2.921386719,-2.811523438,-3.924316406,504,-507,306
2790,-2.923339844,-2.809082031,-3.923095703,479,-487,318
2795,-2.920166016,-2.809814453,-3.922119141,516,-510,299
2800,-2.920898438,-2.814453125,-3.919921875,510,-509,307
2805,-2.918945313,-2.812744141,-3.918457031,476,-472,293
2810,-2.922363281,-2.811523438,-3.925292969,495,-483,313
2815,-2.919921875,-2.809326172,-3.919677734,520,-474,305
2820,-2.920410156,-2.809082031,-3.920166016,514,-478,297
2825,-2.924804688,-2.809570313,-3.922363281,484,-464,307
2830,-2.920654297,-2.807861328,-3.924804688,493,-480,321
2835,-2.923828125,-2.812011719,-3.916015625,497,-479,325
2840,-2.921386719,-2.809082031,-3.919921875,486,-507,298
2845,-2.919433594,-2.803222656,-3.923339844,490,-497,302
2850,-2.920166016,-2.811035156,-3.919189453,513,-515,287
2855,-2.920410156,-2.807373047,-3.917480469,496,-498,310
2860,-2.920410156,-2.808837891,-3.918945313,504,-496,300
2865,-2.918457031,-2.806396484,-3.923828125,508,-484,307
2870,-2.922851563,-2.808105469,-3.917236328,471,-449,308
2875,-2.919433594,-2.812744141,-3.921386719,507,-462,290
2880,-2.923339844,-2.80859375,-3.917236328,513,-483,296
2886,-2.923095703,-2.809570313,-3.927490234,507,-498,306
2891,-2.919677734,-2.808105469,-3.921142578,501,-500,310
2896,-2.922119141,-2.809814453,-3.926513672,495,-502,317
2901,-2.919677734,-2.810791016,-3.922363281,524,-533,293
2906,-2.922119141,-2.810791016,-3.922607422,487,-506,312
2911,-2.920654297,-2.812744141,-3.915771484,511,-496,306
2916,-2.918701172,-2.805419922,-3.919433594,490,-459,312
2921,-2.923828125,-2.811279297,-3.922851563,496,-476,301
2926,-2.923828125,-2.809326172,-3.920654297,481,-469,289
2931,-2.922851563,-2.811523438,-3.926025391,492,-487,304
2936,-2.924560547,-2.810546875,-3.920654297,482,-472,312
2941,-2.919189453,-2.810302734,-3.922607422,504,-487,308
2946,-2.922119141,-2.807128906,-3.921630859,509,-495,293
2951,-2.919677734,-2.810791016,-3.917480469,498,-500,280
2956,-2.917236328,-2.807128906,-3.925048828,483,-490,308
2961,-2.919677734,-2.807373047,-3.919433594,507,-508,322
2966,-2.919189453,-2.810546875,-3.920654297,492,-476,306
2971,-2.922119141,-2.808349609,-3.917480469,484,-456,312
2976,-2.926513672,-2.809082031,-3.922607422,500,-468,297
2981,-2.923583984,-2.809814453,-3.916015625,484,-489,303
2986,-2.925292969,-2.812255859,-3.918701172,522,-494,330
2991,-2.923583984,-2.811279297,-3.917236328,510,-501,305
2996,-2.921386719,-2.811523438,-3.920898438,512,-503,289
3001,-2.916748047,-2.808837891,-3.916992188,502,-484,320
3006,-2.922851563,-2.8046875,-3.926757813,479,-475,288
3011,-2.921386719,-2.804931641,-3.917480469,493,-476,295
3016,-2.922119141,-2.80859375,-3.919433594,487,-472,310
3021,-2.921142578,-2.806884766,-3.921386719,484,-498,329
3027,-2.921630859,-2.809570313,-3.923583984,496,-471,301
3032,-2.921386719,-2.810302734,-3.922851563,493,-476,282
3037,-2.923828125,-2.808837891,-3.920654297,506,-502,305
3042,-2.920654297,-2.811279297,-3.916259766,517,-509,304
3047,-2.921875,-2.812011719,-3.922363281,522,-509,325
3052,-2.919189453,-2.807128906,-3.924560547,489,-505,319
3057,-2.920166016,-2.806152344,-3.920166016,506,-479,307
3062,-2.927246094,-2.811035156,-3.918212891,494,-479,289
3067,-2.923828125,-2.8125,-3.923095703,497,-461,302
3072,-2.927734375,-2.809326172,-3.925537109,480,-459,302
3077,-2.923828125,-2.813476563,-3.925537109,518,-472,301
3082,-2.923339844,-2.810058594,-3.921142578,482,-515,326
3087,-2.922119141,-2.807861328,-3.918457031,503,-488,311
3092,-2.919921875,-2.806884766,-3.929443359,506,-491,307
3097,-2.920166016,-2.807373047,-3.916748047,486,-497,302
3102,-2.923583984,-2.811767578,-3.924072266,488,-495,292
3107,-2.920410156,-2.810058594,-3.917724609,505,-485,307
3112,-2.923095703,-2.809326172,-3.925292969,478,-480,314
3117,-2.919189453,-2.80859375,-3.925292969,494,-481,296
3122,-2.923095703,-2.807373047,-3.926513672,498,-473,295
3127,-2.920410156,-2.807617188,-3.930419922,488,-457,312
3132,-2.923095703,-2.811035156,-3.916992188,498,-469,310
3137,-2.921386719,-2.810791016,-3.921142578,519,-491,304
3142,-2.92578125,-2.806152344,-3.927734375,514,-491,301
3147,-2.922363281,-2.810791016,-3.917724609,505,-499,306
3152,-2.923095703,-2.806640625,-3.923095703,493,-514,319
3157,-2.923339844,-2.811523438,-3.926269531,505,-480,300
3162,-2.919433594,-2.808349609,-3.921630859,497,-482,306
3168,-2.921142578,-2.808349609,-3.921142578,514,-501,302
3173,-2.924316406,-2.806396484,-3.920166016,484,-449,321
3178,-2.917724609,-2.806884766,-3.924072266,499,-461,282
3183,-2.920166016,-2.808837891,-3.918701172,517,-489,329
3188,-2.924804688,-2.809570313,-3.927734375,494,-489,301
3193,-2.923583984,-2.811767578,-3.925048828,496,-507,298
3198,-2.919189453,-2.808105469,-3.924560547,487,-477,302
3203,-2.922119141,-2.812011719,-3.919433594,489,-497,296
3208,-2.920898438,-2.811035156,-3.918945313,509,-477,314
3213,-2.918457031,-2.812011719,-3.922851563,505,-475,318
3218,-2.918945313,-2.8046875,-3.924316406,491,-495,317
3223,-2.918212891,-2.807861328,-3.918457031,491,-482,299
3228,-2.918701172,-2.809326172,-3.926025391,498,-496,322
3233,-2.918457031,-2.811035156,-3.918212891,490,-476,296
3238,-2.924316406,-2.809082031,-3.918945313,495,-478,297
3243,-2.925292969,-2.808837891,-3.925537109,497,-507,308
3248,-2.923583984,-2.812011719,-3.925292969,500,-490,295
3253,-2.925292969,-2.808105469,-3.910644531,478,-465,318
3258,-2.918945313,-2.806884766,-3.916748047,515,-495,311
3263,-2.919433594,-2.809814453,-3.923339844,468,-492,321
3268,-2.918212891,-2.810058594,-3.918457031,511,-488,291
3273,-2.921386719,-2.810791016,-3.919921875,499,-467,292
3278,-2.922607422,-2.809082031,-3.920166016,510,-468,295
3283,-2.922851563,-2.809814453,-3.919189453,490,-476,309
3288,-2.920898438,-2.810791016,-3.917724609,495,-472,319
3293,-2.926269531,-2.812744141,-3.924560547,477,-489,311
3298,-2.926513672,-2.807617188,-3.91796875,517,-498,303
3304,-2.924072266,-2.809326172,-3.926025391,473,-503,299
3309,-2.924072266,-2.810546875,-3.92578125,506,-479,324
3314,-2.918945313,-2.810791016,-3.92578125,507,-482,278
3319,-2.917724609,-2.809814453,-3.924072266,503,-471,312
3324,-2.921386719,-2.811279297,-3.924560547,492,-459,324
3329,-2.921875,-2.808349609,-3.919677734,503,-484,294
3334,-2.922119141,-2.8125,-3.926025391,487,-493,301
3339,-2.926757813,-2.810302734,-3.920166016,504,-468,297
3344,-2.923583984,-2.812255859,-3.919433594,495,-474,294
3349,-2.923095703,-2.809814453,-3.923339844,495,-505,297
3354,-2.920654297,-2.812988281,-3.915039063,492,-502,291
3359,-2.920410156,-2.807373047,-3.915039063,484,-494,335
3364,-2.921386719,-2.808837891,-3.925537109,496,-491,301
3369,-2.919921875,-2.808837891,-3.921875,490,-473,330
3374,-2.922119141,-2.807861328,-3.917480469,487,-486,320
3379,-2.921142578,-2.810791016,-3.922851563,505,-458,303
3384,-2.922607422,-2.810058594,-3.915771484,490,-466,323
3389,-2.923583984,-2.809570313,-3.917724609,502,-468,298
3394,-2.922363281,-2.811523438,-3.923828125,500,-481,295
3399,-2.919433594,-2.811767578,-3.916748047,511,-505,304
3404,-2.924804688,-2.8125,-3.923095703,513,-499,305
3409,-2.918457031,-2.811035156,-3.929443359,531,-483,285
3414,-2.924804688,-2.807861328,-3.917724609,483,-513,312
3419,-2.921142578,-2.812744141,-3.919921875,494,-466,310
3424,-2.923828125,-2.806152344,-3.927001953,488,-488,311
3429,-2.921142578,-2.812988281,-3.924072266,484,-458,304
3434,-2.920410156,-2.810546875,-3.920898438,489,-480,315
3439,-2.921386719,-2.809326172,-3.926269531,492,-469,285
3445,-2.923095703,-2.805908203,-3.918212891,502,-469,308
3450,-2.921630859,-2.810302734,-3.920166016,521,-503,305
3455,-2.921142578,-2.813720703,-3.920898438,506,-492,311
3460,-2.923583984,-2.810058594,-3.924072266,500,-518,308
3465,-2.920898438,-2.810302734,-3.924804688,464,-487,298
3470,-2.918457031,-2.806396484,-3.916992188,490,-485,272
3475,-2.925537109,-2.807861328,-3.919433594,510,-448,300
3480,-2.920166016,-2.810302734,-3.926269531,473,-484,311
3485,-2.923339844,-2.811279297,-3.923828125,492,-489,304
3490,-2.923095703,-2.806640625,-3.923339844,508,-488,311
3495,-2.922119141,-2.812255859,-3.925048828,501,-484,296
3500,-2.922607422,-2.809326172,-3.919921875,483,-504,347
3505,-2.924072266,-2.811523438,-3.921142578,512,-506,291
3510,-2.920898438,-2.809326172,-3.924316406,485,-483,296
3515,-2.921386719,-2.810302734,-3.926269531,505,-483,298
3520,-2.920654297,-2.806152344,-3.923339844,476,-489,289
3525,-2.918701172,-2.810791016,-3.923828125,489,-489,294
3530,-2.922363281,-2.808349609,-3.921630859,488,-476,290
3535,-2.919189453,-2.810791016,-3.928710938,492,-457,301
3540,-2.919433594,-2.811523438,-3.926269531,509,-473,303
3545,-2.922851563,-2.808105469,-3.930664063,490,-478,294
3550,-2.925048828,-2.810302734,-3.923339844,485,-482,310
3555,-2.923583984,-2.809570313,-3.923828125,513,-492,323
3560,-2.926757813,-2.809570313,-3.924072266,488,-500,309
3565,-2.923828125,-2.812011719,-3.921142578,504,-503,303
3570,-2.924072266,-2.807861328,-3.920166016,500,-486,286
3575,-2.922607422,-2.807128906,-3.925537109,507,-476,287
3580,-2.920166016,-2.810791016,-3.92578125,489,-466,296
3586,-2.922607422,-2.804931641,-3.924804688,487,-492,314
3591,-2.923339844,-2.809570313,-3.91796875,495,-478,332
3596,-2.923095703,-2.804931641,-3.923583984,494,-488,310
3601,-2.925292969,-2.808105469,-3.924804688,506,-512,287
3606,-2.922607422,-2.809326172,-3.927246094,491,-488,299
3611,-2.921386719,-2.809814453,-3.915771484,501,-508,286
3616,-2.923339844,-2.809814453,-3.922119141,503,-490,298
3621,-2.921142578,-2.809814453,-3.920898438,488,-489,294
3626,-2.922363281,-2.807617188,-3.915527344,483,-479,296
3631,-2.923828125,-2.811279297,-3.923583984,484,-469,307
3636,-2.922363281,-2.811767578,-3.920166016,492,-444,303
3641,-2.925292969,-2.810546875,-3.931396484,507,-482,291
3646,-2.921142578,-2.810791016,-3.926269531,491,-486,296
3651,-2.923339844,-2.807617188,-3.919433594,513,-480,307
3656,-2.918945313,-2.807128906,-3.923095703,493,-501,292
3661,-2.923828125,-2.809570313,-3.927978516,490,-499,278
3666,-2.921142578,-2.808105469,-3.921630859,501,-496,303
3671,-2.920166016,-2.810058594,-3.922119141,471,-486,294
3676,-2.922363281,-2.807128906,-3.930664063,518,-478,318
3681,-2.924804688,-2.809326172,-3.922119141,495,-453,308
3686,-2.918701172,-2.814697266,-3.918212891,483,-466,298
3691,-2.923095703,-2.811523438,-3.921630859,510,-464,294
3696,-2.920898438,-2.809570313,-3.924072266,509,-501,302
3701,-2.922851563,-2.809082031,-3.920898438,493,-518,327
3706,-2.921386719,-2.810791016,-3.924560547,500,-505,291
3711,-2.921142578,-2.809082031,-3.926025391,488,-492,301
3716,-2.91796875,-2.809082031,-3.918212891,492,-498,290
3721,-2.921386719,-2.808349609,-3.914794922,489,-493,281
3727,-2.925048828,-2.810058594,-3.92578125,496,-470,318
3732,-2.920654297,-2.814453125,-3.917724609,491,-469,291
3737,-2.921875,-2.807861328,-3.918701172,500,-492,305
3742,-2.918457031,-2.809814453,-3.919677734,504,-504,299
3747,-2.920654297,-2.808837891,-3.922851563,505,-494,315
3752,-2.923583984,-2.809326172,-3.918457031,518,-495,294
3757,-2.922363281,-2.807861328,-3.921875,488,-490,319
3762,-2.919433594,-2.812744141,-3.923583984,497,-491,304
3767,-2.920166016,-2.806396484,-3.91796875,471,-490,312
3772,-2.922851563,-2.805908203,-3.921142578,511,-488,318
3777,-2.920654297,-2.808837891,-3.925048828,508,-475,305
3782,-2.925537109,-2.807373047,-3.92578125,471,-468,305
3787,-2.925537109,-2.811523438,-3.926513672,498,-474,298
3792,-2.925537109,-2.810791016,-3.913330078,479,-464,315
3797,-2.921386719,-2.810058594,-3.923583984,511,-516,308
3802,-2.921386719,-2.805419922,-3.923583984,512,-467,301
3807,-2.922607422,-2.811279297,-3.926025391,493,-478,303
3812,-2.920654297,-2.811523438,-3.924804688,484,-471,325
3817,-2.923339844,-2.811767578,-3.917480469,493,-497,321
3822,-2.921386719,-2.809814453,-3.926025391,480,-493,280
3827,-2.921875,-2.810546875,-3.930175781,476,-485,294
3832,-2.924804688,-2.811767578,-3.921386719,514,-494,311
3837,-2.923583984,-2.810058594,-3.916992188,506,-477,305
3842,-2.924316406,-2.810302734,-3.921630859,497,-502,290
3847,-2.925048828,-2.809326172,-3.923828125,502,-474,327
3852,-2.923828125,-2.810546875,-3.922607422,500,-478,304
3857,-2.920166016,-2.807861328,-3.925048828,491,-477,328
3863,-2.919677734,-2.810302734,-3.923583984,509,-473,291
3868,-2.921630859,-2.808837891,-3.911132813,491,-467,313
3873,-2.920898438,-2.809814453,-3.923339844,494,-461,296
3878,-2.921142578,-2.806884766,-3.917480469,497,-465,322
3883,-2.919189453,-2.809326172,-3.922607422,466,-480,301
3888,-2.921630859,-2.806884766,-3.921875,479,-483,299
3893,-2.920410156,-2.809082031,-3.927734375,482,-506,287
3898,-2.921630859,-2.806884766,-3.923095703,498,-482,328
3903,-2.924316406,-2.809814453,-3.925292969,473,-506,316
3908,-2.922363281,-2.810791016,-3.918701172,503,-484,304
3913,-2.922851563,-2.810546875,-3.923828125,499,-462,293
3918,-2.922119141,-2.809570313,-3.920166016,483,-451,309
3923,-2.923583984,-2.808837891,-3.924560547,511,-462,304
3928,-2.924804688,-2.808349609,-3.922607422,488,-475,311
3933,-2.920654297,-2.809570313,-3.918945313,501,-470,293
3938,-2.924072266,-2.811523438,-3.919433594,491,-486,304
3943,-2.920654297,-2.811767578,-3.928466797,490,-499,306
3948,-2.923339844,-2.810058594,-3.928710938,528,-486,308
3953,-2.922851563,-2.810302734,-3.915527344,489,-488,274
3958,-2.921386719,-2.809570313,-3.922363281,486,-461,312
3963,-2.922363281,-2.811279297,-3.927734375,508,-475,307
3968,-2.919677734,-2.809814453,-3.92578125,490,-485,309
3973,-2.922607422,-2.805664063,-3.922363281,499,-500,316
3978,-2.923339844,-2.8125,-3.924560547,505,-464,302
3983,-2.920898438,-2.806884766,-3.917480469,510,-491,314
3988,-2.925292969,-2.810546875,-3.916259766,491,-463,290
3993,-2.919921875,-2.809814453,-3.930908203,501,-476,304
3998,-2.920654297,-2.809082031,-3.927246094,506,-490,334
4004,-2.924804688,-2.810546875,-3.920654297,489,-512,320
4009,-2.922363281,-2.811767578,-3.923095703,494,-466,295
4014,-2.918457031,-2.80859375,-3.922363281,499,-485,321
4019,-2.920410156,-2.809326172,-3.926513672,510,-482,319
4024,-2.919921875,-2.811035156,-3.922363281,493,-474,310
4029,-2.920166016,-2.804931641,-3.926269531,501,-466,317
4034,-2.916748047,-2.810058594,-3.919921875,501,-467,315
4039,-2.921630859,-2.810546875,-3.916748047,513,-482,309
4044,-2.919921875,-2.817382813,-3.919433594,504,-500,280
4049,-2.924072266,-2.812988281,-3.921142578,487,-482,316
4054,-2.919677734,-2.809082031,-3.918457031,499,-494,315
4059,-2.921142578,-2.807617188,-3.922607422,500,-482,307
4064,-2.921386719,-2.808105469,-3.923095703,468,-479,300
4069,-2.921386719,-2.810302734,-3.930175781,492,-482,311
4074,-2.920898438,-2.80859375,-3.921386719,498,-454,315
4079,-2.921875,-2.810302734,-3.922363281,482,-475,297
4084,-2.919677734,-2.809570313,-3.924316406,494,-448,300
4089,-2.923828125,-2.811279297,-3.926513672,498,-494,297
4094,-2.922119141,-2.807128906,-3.922363281,493,-504,308
4099,-2.926757813,-2.807373047,-3.919921875,502,-512,297
4104,-2.922119141,-2.807373047,-3.928955078,497,-463,305
4109,-2.921875,-2.804931641,-3.919433594,496,-490,324
4114,-2.920898438,-2.806640625,-3.917724609,497,-474,313
4119,-2.920654297,-2.808105469,-3.922607422,510,-496,300
4124,-2.920654297,-2.80859375,-3.924316406,518,-487,296
4129,-2.923339844,-2.813720703,-3.922851563,486,-510,288
4134,-2.924072266,-2.809570313,-3.919677734,499,-496,297
4139,-2.924316406,-2.806640625,-3.920410156,488,-480,307
4145,-2.926513672,-2.809814453,-3.929199219,507,-497,307
4150,-2.919921875,-2.812011719,-3.918701172,500,-490,316
4155,-2.921386719,-2.812011719,-3.919433594,503,-486,297
4160,-2.920654297,-2.807617188,-3.921875,502,-484,311
4165,-2.921142578,-2.809814453,-3.919677734,496,-491,313
4170,-2.928710938,-2.808105469,-3.923095703,511,-499,305
4175,-2.920898438,-2.810302734,-3.927246094,497,-494,293
4180,-2.920410156,-2.809326172,-3.928466797,499,-457,302
4185,-2.922851563,-2.809082031,-3.922119141,495,-479,298
4190,-2.922607422,-2.809082031,-3.9296875,492,-480,306
4195,-2.91796875,-2.809570313,-3.921875,487,-491,315
4200,-2.921386719,-2.808349609,-3.926269531,494,-484,305
4205,-2.918457031,-2.811035156,-3.91796875,504,-486,300
4210,-2.920166016,-2.809570313,-3.921386719,510,-513,328
4215,-2.920654297,-2.809814453,-3.922607422,517,-495,325
4220,-2.919921875,-2.803710938,-3.916748047,495,-480,301
4225,-2.920654297,-2.807861328,-3.919921875,476,-496,325
4230,-2.921142578,-2.80859375,-3.924316406,489,-465,319
4235,-2.926269531,-2.810058594,-3.925292969,508,-495,274
4240,-2.921142578,-2.810058594,-3.927734375,504,-477,319
4245,-2.922851563,-2.810546875,-3.923339844,481,-475,294
4250,-2.923339844,-2.807617188,-3.917236328,501,-479,329
4255,-2.925292969,-2.809326172,-3.919677734,506,-489,298
4260,-2.921142578,-2.810302734,-3.926757813,504,-498,317
4265,-2.923339844,-2.806884766,-3.925048828,509,-488,286
4270,-2.921386719,-2.805908203,-3.927734375,513,-468,310
4275,-2.918701172,-2.808349609,-3.928710938,494,-473,318
4280,-2.921386719,-2.809326172,-3.920166016,481,-463,315
4286,-2.922851563,-2.806640625,-3.919433594,483,-474,282
4291,-2.923828125,-2.807128906,-3.918945313,501,-467,302
4296,-2.919677734,-2.809814453,-3.918212891,487,-477,311
4301,-2.920410156,-2.811279297,-3.916748047,498,-495,318
4306,-2.921142578,-2.809082031,-3.924560547,516,-487,299
4311,-2.921386719,-2.805664063,-3.926025391,509,-481,321
4316,-2.919189453,-2.810546875,-3.923339844,510,-484,292
4321,-2.919921875,-2.810058594,-3.919677734,510,-483,288
4326,-2.920166016,-2.809082031,-3.922851563,509,-475,316
4331,-2.920410156,-2.805908203,-3.916992188,489,-448,315
4336,-2.924804688,-2.810791016,-3.927978516,482,-474,312
4341,-2.924072266,-2.813232422,-3.928222656,491,-449,294
4346,-2.925292969,-2.811523438,-3.926269531,497,-474,320
4351,-2.923339844,-2.806640625,-3.916992188,510,-493,310
4356,-2.923828125,-2.809326172,-3.921142578,493,-495,312
4361,-2.91796875,-2.808349609,-3.920898438,473,-509,304
4366,-2.923095703,-2.808837891,-3.925292969,481,-484,324
4371,-2.923095703,-2.807617188,-3.926513672,506,-481,300
4376,-2.923095703,-2.809814453,-3.927246094,498,-483,295
4381,-2.922851563,-2.806884766,-3.921386719,475,-450,322
4386,-2.921142578,-2.8125,-3.920898438,496,-453,313
4391,-2.923828125,-2.811279297,-3.927246094,487,-485,328
4396,-2.926513672,-2.810058594,-3.927246094,501,-468,290
4401,-2.922363281,-2.810791016,-3.921142578,500,-510,297
4406,-2.919433594,-2.811523438,-3.928955078,510,-530,325
4411,-2.920654297,-2.810302734,-3.922119141,497,-503,296
4416,-2.921142578,-2.811035156,-3.922363281,521,-509,313
4421,-2.921630859,-2.807617188,-3.919433594,495,-484,311
4427,-2.922607422,-2.809326172,-3.923828125,489,-500,307
4432,-2.92578125,-2.808837891,-3.920654297,499,-492,316
4437,-2.922851563,-2.808105469,-3.927246094,484,-458,303
4442,-2.92578125,-2.807617188,-3.924804688,497,-477,297
4447,-2.922607422,-2.80859375,-3.926757813,486,-458,303
4452,-2.920898438,-2.809082031,-3.930175781,505,-469,320
4457,-2.921142578,-2.810302734,-3.927001953,506,-491,276
4462,-2.917236328,-2.809082031,-3.918457031,506,-499,288
4467,-2.919433594,-2.812011719,-3.917480469,488,-511,320
4472,-2.924804688,-2.80859375,-3.919677734,486,-504,316
4477,-2.922119141,-2.810058594,-3.921630859,514,-494,298
4482,-2.917724609,-2.809814453,-3.922119141,505,-485,311
4487,-2.922607422,-2.810058594,-3.919189453,492,-466,300
4492,-2.924804688,-2.810546875,-3.926513672,489,-458,318
4497,-2.922607422,-2.809814453,-3.919433594,472,-459,301
4502,-2.921875,-2.811279297,-3.923583984,496,-490,292
4507,-2.924316406,-2.807861328,-3.925292969,509,-504,311
4512,-2.920410156,-2.810058594,-3.923095703,522,-489,320
4517,-2.918945313,-2.807128906,-3.923828125,491,-495,328
4522,-2.922119141,-2.807617188,-3.918212891,495,-469,298
4527,-2.920410156,-2.809570313,-3.920654297,510,-477,302
4532,-2.920654297,-2.810791016,-3.921875,460,-458,309
4537,-2.926513672,-2.806396484,-3.924072266,480,-475,302
4542,-2.921142578,-2.808105469,-3.924072266,491,-480,305
4547,-2.924072266,-2.812744141,-3.921386719,509,-458,283
4552,-2.922363281,-2.806640625,-3.931884766,486,-500,320
4557,-2.923828125,-2.809326172,-3.916015625,493,-504,298
4563,-2.920166016,-2.811767578,-3.923583984,514,-500,294
4568,-2.920654297,-2.808105469,-3.9140625,511,-500,307
4573,-2.922119141,-2.809082031,-3.924560547,504,-496,293
4578,-2.919677734,-2.810302734,-3.926513672,472,-478,307
4583,-2.922851563,-2.809570313,-3.926269531,498,-476,306
4588,-2.924072266,-2.810546875,-3.923828125,490,-466,308
4593,-2.924560547,-2.812255859,-3.924072266,523,-465,286
4598,-2.92578125,-2.809326172,-3.922119141,502,-477,320
4603,-2.922851563,-2.812744141,-3.919921875,508,-524,306
4608,-2.921875,-2.806884766,-3.922119141,498,-510,311
4613,-2.921630859,-2.808105469,-3.920166016,512,-491,309
4618,-2.919677734,-2.807617188,-3.916748047,480,-483,306
4623,-2.920166016,-2.807617188,-3.922119141,478,-449,317
4628,-2.920898438,-2.8125,-3.922607422,484,-474,301
4633,-2.921142578,-2.807861328,-3.916503906,481,-462,309
4638,-2.922363281,-2.804443359,-3.922607422,487,-478,320
4643,-2.923828125,-2.810058594,-3.927001953,495,-509,288
4648,-2.920898438,-2.808837891,-3.923828125,516,-492,299
4653,-2.917724609,-2.812011719,-3.922607422,523,-502,281
4658,-2.923583984,-2.809814453,-3.921386719,498,-507,317
4663,-2.922851563,-2.80859375,-3.921630859,493,-492,313
4668,-2.921875,-2.803710938,-3.921386719,496,-506,303
4673,-2.921630859,-2.811523438,-3.925048828,487,-504,316
4678,-2.918212891,-2.807617188,-3.929931641,489,-448,299
4683,-2.920410156,-2.806640625,-3.919921875,488,-467,315
4688,-2.921630859,-2.811767578,-3.925048828,487,-490,296
4693,-2.926513672,-2.811279297,-3.926269531,496,-463,318
4698,-2.922607422,-2.809570313,-3.925048828,492,-479,313
4704,-2.919921875,-2.807617188,-3.913085938,489,-510,314
4709,-2.920654297,-2.810058594,-3.926269531,500,-516,315
4714,-2.921875,-2.812255859,-3.917236328,516,-512,304
4719,-2.921875,-2.809326172,-3.922851563,506,-489,303
4724,-2.917724609,-2.80859375,-3.923828125,487,-482,315
4729,-2.924560547,-2.808349609,-3.921630859,497,-470,302
4734,-2.922363281,-2.811523438,-3.920410156,491,-470,298
4739,-2.924316406,-2.812988281,-3.925537109,513,-463,306
4744,-2.919433594,-2.808105469,-3.915283203,513,-478,318
4749,-2.926757813,-2.810791016,-3.921386719,495,-491,329
4754,-2.924804688,-2.810058594,-3.922363281,519,-489,294
4759,-2.921386719,-2.807128906,-3.921875,512,-486,306
4764,-2.921386719,-2.810058594,-3.919921875,490,-481,306
4769,-2.919677734,-2.806640625,-3.919921875,517,-486,305
4774,-2.919677734,-2.811767578,-3.920654297,492,-479,302
4779,-2.922607422,-2.810302734,-3.924072266,492,-468,308
4784,-2.924804688,-2.810058594,-3.928466797,496,-453,319
4789,-2.921386719,-2.807128906,-3.922851563,483,-481,304
4794,-2.924316406,-2.808837891,-3.922363281,485,-489,287
4799,-2.926269531,-2.810791016,-3.926757813,495,-492,271
4804,-2.923828125,-2.809082031,-3.915771484,510,-496,292
4809,-2.920166016,-2.806640625,-3.92578125,496,-516,290
4814,-2.922607422,-2.807617188,-3.922851563,496,-500,306
4819,-2.921142578,-2.811279297,-3.924072266,516,-481,313
4824,-2.922363281,-2.811279297,-3.929199219,468,-478,290
4829,-2.922363281,-2.808349609,-3.917236328,497,-484,290
4834,-2.921386719,-2.811767578,-3.923583984,483,-486,302
4839,-2.923339844,-2.810791016,-3.918701172,504,-462,293
4845,-2.919189453,-2.811279297,-3.927246094,493,-490,308
4850,-2.919189453,-2.810546875,-3.920898438,523,-493,312
4855,-2.921142578,-2.807373047,-3.917480469,493,-486,309
4860,-2.922119141,-2.806884766,-3.9296875,507,-498,318
4865,-2.919677734,-2.810302734,-3.921142578,484,-493,302
4870,-2.924072266,-2.808349609,-3.923095703,482,-469,298
4875,-2.920898438,-2.808837891,-3.923583984,482,-486,282
4880,-2.922119141,-2.8125,-3.917480469,507,-493,328
4885,-2.918212891,-2.810546875,-3.921142578,488,-450,300
4890,-2.923095703,-2.809082031,-3.924316406,493,-456,310
4895,-2.923339844,-2.804931641,-3.91015625,504,-470,298
4900,-2.921386719,-2.809326172,-3.920654297,493,-485,295
4905,-2.923583984,-2.809814453,-3.920166016,502,-509,290
4910,-2.924560547,-2.809814453,-3.916259766,510,-501,311
4915,-2.920654297,-2.808837891,-3.922607422,480,-519,309
4920,-2.924316406,-2.810302734,-3.923583984,514,-471,314
4925,-2.918945313,-2.807128906,-3.921630859,503,-479,304
4930,-2.924804688,-2.810546875,-3.919189453,477,-449,316
4935,-2.922607422,-2.809570313,-3.922119141,495,-470,314
4940,-2.922363281,-2.809326172,-3.923095703,507,-472,309
4945,-2.922363281,-2.812255859,-3.917724609,493,-479,311
4950,-2.925048828,-2.814208984,-3.925292969,476,-501,315
4955,-2.924072266,-2.810546875,-3.915771484,493,-525,296
4960,-2.923828125,-2.808837891,-3.915771484,505,-475,328
4965,-2.921142578,-2.806884766,-3.922363281,510,-502,296
4970,-2.921142578,-2.812988281,-3.928955078,493,-491,316
4975,-2.917724609,-2.810546875,-3.921630859,493,-466,296
4980,-2.916748047,-2.80859375,-3.931884766,497,-472,307
4986,-2.920898438,-2.80859375,-3.929931641,478,-457,289
4991,-2.923095703,-2.811523438,-3.918212891,492,-488,316
4996,-2.922119141,-2.810791016,-3.922851563,487,-488,282
5001,-2.922851563,-2.808837891,-3.916748047,512,-474,298
5006,-2.923095703,-2.809082031,-3.925537109,507,-484,293
5011,-2.922363281,-2.80859375,-3.913574219,510,-492,307
5016,-2.921630859,-2.809570313,-3.915283203,520,-508,312
5021,-2.920166016,-2.807617188,-3.915039063,478,-499,310
5026,-2.923095703,-2.813476563,-3.926025391,501,-492,296
5031,-2.921142578,-2.811279297,-3.918457031,509,-493,321
5036,-2.920166016,-2.810058594,-3.926513672,499,-453,342
5041,-2.925292969,-2.810302734,-3.923828125,508,-477,313
5046,-2.921630859,-2.810546875,-3.918457031,505,-481,284
5051,-2.924804688,-2.806152344,-3.921142578,494,-482,321
5056,-2.921142578,-2.808105469,-3.921630859,496,-490,287
5061,-2.923339844,-2.810546875,-3.921386719,498,-489,314
5066,-2.918701172,-2.806396484,-3.922851563,498,-475,282
5071,-2.920898438,-2.810302734,-3.916748047,499,-501,297
5076,-2.921630859,-2.808105469,-3.925292969,516,-453,299
5081,-2.918945313,-2.812255859,-3.927001953,511,-483,294
5086,-2.922851563,-2.805175781,-3.922607422,479,-480,299
5091,-2.918945313,-2.809814453,-3.911865234,507,-485,291
5096,-2.924072266,-2.811279297,-3.927246094,488,-481,303
5101,-2.919433594,-2.811279297,-3.924560547,503,-481,290
5106,-2.921630859,-2.808105469,-3.919921875,508,-501,309
5111,-2.919677734,-2.809082031,-3.922119141,497,-515,338
5116,-2.924804688,-2.809326172,-3.923828125,495,-478,314
5122,-2.921630859,-2.809570313,-3.927246094,512,-477,312
5127,-2.921875,-2.807617188,-3.922851563,503,-497,310
5132,-2.924804688,-2.808349609,-3.919433594,481,-462,324
5137,-2.920898438,-2.806640625,-3.919433594,477,-460,311
5142,-2.920898438,-2.810302734,-3.927490234,513,-518,284
5147,-2.923828125,-2.810058594,-3.926025391,487,-487,269
5152,-2.923095703,-2.807861328,-3.930664063,512,-484,298
5157,-2.917724609,-2.808105469,-3.929199219,501,-487,298
5162,-2.923095703,-2.810058594,-3.922363281,492,-492,311
5167,-2.922607422,-2.806640625,-3.919677734,474,-513,312
5172,-2.922363281,-2.805664063,-3.920654297,493,-504,323
5177,-2.922119141,-2.80859375,-3.921142578,517,-486,299
5182,-2.921630859,-2.807373047,-3.916259766,498,-466,316
5187,-2.924316406,-2.810058594,-3.924316406,491,-429,307
5192,-2.921875,-2.810302734,-3.926025391,487,-471,316
5197,-2.921142578,-2.808837891,-3.911132813,520,-472,308
5202,-2.919189453,-2.810791016,-3.919677734,506,-492,318
5207,-2.919677734,-2.808837891,-3.925537109,518,-493,306
5212,-2.918457031,-2.807861328,-3.923828125,514,-499,296
5217,-2.920898438,-2.807617188,-3.916992188,502,-481,300
5222,-2.924560547,-2.807373047,-3.923828125,492,-470,309
5227,-2.919433594,-2.810546875,-3.920166016,483,-481,280
5232,-2.921142578,-2.809814453,-3.913085938,488,-468,290
5237,-2.921630859,-2.806396484,-3.926269531,482,-487,302
5242,-2.921875,-2.812011719,-3.928710938,506,-483,286
5247,-2.924560547,-2.808349609,-3.922119141,527,-491,278
5252,-2.920898438,-2.812255859,-3.920166016,499,-513,306
5257,-2.922119141,-2.812988281,-3.923339844,526,-480,312
5263,-2.921142578,-2.808349609,-3.922363281,483,-498,301
5268,-2.920898438,-2.811767578,-3.923339844,490,-485,297
5273,-2.921142578,-2.808349609,-3.919433594,494,-481,333
5278,-2.919189453,-2.809570313,-3.917480469,500,-479,312
5283,-2.918945313,-2.805419922,-3.931396484,499,-500,327
5288,-2.924072266,-2.8046875,-3.924560547,486,-454,290
5293,-2.925292969,-2.810791016,-3.925537109,510,-477,302
5298,-2.926269531,-2.808349609,-3.916992188,487,-475,319
5303,-2.921142578,-2.812255859,-3.923583984,469,-497,308
5308,-2.924804688,-2.810058594,-3.924804688,513,-524,304
5313,-2.923095703,-2.809570313,-3.918701172,496,-502,321
5318,-2.922119141,-2.806152344,-3.924804688,486,-489,322
5323,-2.925048828,-2.808105469,-3.922851563,514,-487,293
5328,-2.918945313,-2.80859375,-3.924804688,493,-477,299
5333,-2.922851563,-2.806884766,-3.921386719,494,-479,311
5338,-2.925048828,-2.806640625,-3.925292969,521,-449,316
5343,-2.925292969,-2.811767578,-3.927490234,481,-471,287
5348,-2.921630859,-2.811523438,-3.914550781,473,-487,301
5353,-2.924072266,-2.809570313,-3.929931641,506,-460,286
5358,-2.921142578,-2.810791016,-3.917236328,519,-470,313
5363,-2.920898438,-2.809570313,-3.916503906,516,-497,295
5368,-2.921142578,-2.809082031,-3.918945313,519,-468,312
5373,-2.921142578,-2.810302734,-3.928466797,504,-484,303
5378,-2.919433594,-2.80859375,-3.918212891,485,-492,292
5383,-2.920166016,-2.809570313,-3.923583984,503,-476,296
5388,-2.920654297,-2.809570313,-3.928710938,501,-465,314
5393,-2.923828125,-2.809814453,-3.927001953,483,-479,311
5398,-2.922363281,-2.809570313,-3.924804688,494,-497,293
5404,-2.926025391,-2.811035156,-3.925292969,510,-499,316
5409,-2.921875,-2.810791016,-3.917480469,484,-487,298
5414,-2.923095703,-2.808105469,-3.924072266,506,-492,284
5419,-2.920654297,-2.809814453,-3.919189453,509,-503,310
5424,-2.923828125,-2.807373047,-3.923095703,519,-495,306
5429,-2.919921875,-2.805419922,-3.919677734,493,-488,308
5434,-2.919921875,-2.811035156,-3.919677734,492,-470,319
5439,-2.922363281,-2.809082031,-3.92578125,501,-457,273
5444,-2.920898438,-2.811523438,-3.926757813,491,-468,316
5449,-2.923828125,-2.806396484,-3.923583984,502,-481,288
5454,-2.918945313,-2.812011719,-3.925048828,492,-495,319
5459,-2.924072266,-2.809814453,-3.923339844,509,-481,296
5464,-2.923828125,-2.812988281,-3.918701172,483,-494,312
5469,-2.921630859,-2.811035156,-3.917480469,510,-492,286
5474,-2.924072266,-2.8125,-3.922851563,508,-488,292
5479,-2.919677734,-2.808105469,-3.923339844,486,-477,337
5484,-2.925292969,-2.813964844,-3.920410156,495,-467,301
5489,-2.919921875,-2.809570313,-3.927490234,508,-484,307
5494,-2.927978516,-2.813476563,-3.921142578,503,-492,332
5499,-2.924316406,-2.808837891,-3.923583984,508,-488,305
5504,-2.926269531,-2.807373047,-3.919677734,506,-495,317
5509,-2.920654297,-2.813232422,-3.915527344,526,-519,310
5514,-2.923095703,-2.810546875,-3.913330078,513,-496,296
5519,-2.922851563,-2.809082031,-3.9296875,507,-500,320
5524,-2.919921875,-2.806640625,-3.924560547,505,-481,309
5529,-2.924316406,-2.812011719,-3.916259766,483,-476,332
5534,-2.921386719,-2.810302734,-3.925048828,493,-447,300
5539,-2.921875,-2.809082031,-3.921630859,491,-471,310
5545,-2.927978516,-2.808105469,-3.921386719,489,-484,304
5550,-2.923095703,-2.810302734,-3.918212891,498,-476,298
5555,-2.921142578,-2.810546875,-3.921875,507,-502,289
5560,-2.918701172,-2.809326172,-3.920410156,500,-501,292
5565,-2.921875,-2.812988281,-3.916015625,496,-472,325
5570,-2.921386719,-2.805419922,-3.927246094,503,-467,317
5575,-2.922119141,-2.809570313,-3.923095703,502,-481,303
5580,-2.922851563,-2.810791016,-3.917724609,500,-477,306
5585,-2.921142578,-2.812255859,-3.921386719,476,-436,271
5590,-2.924072266,-2.811035156,-3.923583984,506,-482,309
5595,-2.923583984,-2.811035156,-3.923339844,488,-468,314
5600,-2.924072266,-2.809814453,-3.922851563,503,-486,294
5605,-2.923339844,-2.810546875,-3.920654297,504,-495,297
5610,-2.918212891,-2.806396484,-3.921386719,533,-534,296
5615,-2.916259766,-2.807373047,-3.920898438,518,-493,312
5620,-2.921142578,-2.80859375,-3.931396484,497,-484,282
5625,-2.919433594,-2.808105469,-3.923095703,484,-481,325
5630,-2.923339844,-2.809570313,-3.920166016,488,-482,307
5635,-2.919189453,-2.811767578,-3.924560547,474,-476,334
5640,-2.922119141,-2.811279297,-3.926757813,481,-463,307
5645,-2.924072266,-2.807617188,-3.9140625,500,-467,315
5650,-2.921142578,-2.809814453,-3.920166016,488,-483,325
5655,-2.923583984,-2.809814453,-3.921630859,495,-479,310
5660,-2.918457031,-2.805664063,-3.926025391,511,-459,320
5665,-2.921142578,-2.806396484,-3.922851563,500,-499,306
5670,-2.921142578,-2.806152344,-3.926757813,502,-480,315
5675,-2.921875,-2.8125,-3.925048828,490,-478,323
5680,-2.924804688,-2.808349609,-3.917724609,524,-481,306
5686,-2.921875,-2.807617188,-3.927490234,500,-479,301
5691,-2.919189453,-2.808105469,-3.920410156,518,-451,314
5696,-2.919189453,-2.810791016,-3.923095703,491,-483,325
5701,-2.919433594,-2.807373047,-3.925292969,518,-473,315
5706,-2.922119141,-2.807861328,-3.924072266,505,-498,306
5711,-2.920654297,-2.811523438,-3.924072266,501,-513,304
5716,-2.920654297,-2.810302734,-3.925292969,496,-508,331
5721,-2.923095703,-2.810302734,-3.923828125,484,-473,306
5726,-2.920166016,-2.809326172,-3.924316406,495,-477,290
5731,-2.920654297,-2.8046875,-3.922851563,500,-464,287
5736,-2.922119141,-2.808349609,-3.922851563,486,-485,293
5741,-2.922607422,-2.809326172,-3.918701172,476,-462,308
5746,-2.921875,-2.811523438,-3.926269531,486,-507,289
5751,-2.923339844,-2.807617188,-3.926269531,495,-487,312
5756,-2.920410156,-2.807617188,-3.920166016,496,-513,300
5761,-2.921386719,-2.808837891,-3.923828125,495,-499,299
5766,-2.919921875,-2.810058594,-3.919921875,510,-485,316
5771,-2.919433594,-2.810546875,-3.920654297,493,-485,318
5776,-2.923095703,-2.809082031,-3.924804688,491,-472,312
5781,-2.921875,-2.808105469,-3.910888672,489,-465,318
5786,-2.920898438,-2.8125,-3.927734375,478,-464,293
5791,-2.919189453,-2.811767578,-3.923828125,508,-478,305
5796,-2.920166016,-2.806396484,-3.925292969,511,-479,318
5801,-2.925537109,-2.812011719,-3.927978516,527,-483,309
5806,-2.921630859,-2.807861328,-3.917236328,512,-491,307
5811,-2.921142578,-2.806640625,-3.922851563,486,-498,318
5816,-2.919921875,-2.808349609,-3.923339844,497,-506,317
5822,-2.920166016,-2.810058594,-3.916992188,504,-487,294
5827,-2.922607422,-2.812255859,-3.919189453,493,-472,322
5832,-2.923583984,-2.805664063,-3.922607422,501,-477,311
5837,-2.925537109,-2.809570313,-3.926513672,483,-462,313
5842,-2.919189453,-2.809326172,-3.921142578,492,-464,330
5847,-2.921142578,-2.810058594,-3.923828125,532,-480,304
5852,-2.923095703,-2.808837891,-3.923095703,486,-498,308
5857,-2.924316406,-2.807861328,-3.924316406,502,-483,301
5862,-2.921630859,-2.809570313,-3.928955078,506,-489,304
5867,-2.925292969,-2.808105469,-3.924560547,516,-484,318
5872,-2.924560547,-2.811279297,-3.923339844,507,-493,305
5877,-2.919677734,-2.807861328,-3.915039063,497,-495,286
5882,-2.918457031,-2.805908203,-3.923583984,484,-475,319
5887,-2.923583984,-2.810791016,-3.926025391,490,-470,327
5892,-2.921142578,-2.812988281,-3.915771484,493,-468,321
5897,-2.921630859,-2.806152344,-3.924804688,514,-462,306
5902,-2.923828125,-2.809326172,-3.926025391,505,-498,317
5907,-2.921630859,-2.808349609,-3.918457031,506,-496,306
5912,-2.922851563,-2.807861328,-3.920166016,524,-503,301
5917,-2.924560547,-2.807128906,-3.931152344,508,-495,295
5922,-2.924072266,-2.814208984,-3.927978516,503,-488,323
5927,-2.920410156,-2.809326172,-3.931152344,508,-477,333
5932,-2.92578125,-2.809570313,-3.920654297,491,-465,332
5937,-2.924804688,-2.805175781,-3.930175781,480,-470,305
5942,-2.921142578,-2.809814453,-3.920410156,495,-481,319
5947,-2.920166016,-2.811523438,-3.922363281,510,-476,308
5952,-2.926269531,-2.808349609,-3.928222656,505,-488,293
5957,-2.926513672,-2.809570313,-3.933349609,509,-502,317
5963,-2.918701172,-2.806152344,-3.912597656,492,-460,308
5968,-2.925048828,-2.80859375,-3.924804688,492,-516,303
5973,-2.922363281,-2.809082031,-3.916259766,520,-492,312
5978,-2.927734375,-2.805664063,-3.924560547,521,-501,307
5983,-2.918945313,-2.809814453,-3.929199219,508,-491,316
5988,-2.924316406,-2.807617188,-3.924560547,503,-477,321
5993,-2.921142578,-2.813476563,-3.926269531,494,-481,313
5998,-2.925048828,-2.813964844,-3.927978516,478,-456,304
6003,-2.925048828,-2.812988281,-3.921630859,509,-457,292
6008,-2.923583984,-2.807861328,-3.924560547,510,-480,291
6013,-2.920898438,-2.809082031,-3.925292969,504,-494,306
6018,-2.924072266,-2.808105469,-3.919677734,490,-502,307
6023,-2.922363281,-2.808105469,-3.920898438,502,-508,306
6028,-2.922851563,-2.808837891,-3.919921875,508,-494,327
6033,-2.924560547,-2.810302734,-3.923828125,499,-504,299
6038,-2.920898438,-2.811035156,-3.924804688,492,-489,315
6043,-2.921875,-2.811279297,-3.926757813,485,-461,323
6048,-2.926757813,-2.810546875,-3.921386719,481,-471,324
6053,-2.919921875,-2.808349609,-3.930419922,501,-503,286
6058,-2.922851563,-2.812255859,-3.917724609,499,-493,282
6063,-2.922363281,-2.809814453,-3.918701172,486,-487,307
6068,-2.918212891,-2.811279297,-3.921875,493,-497,318
6073,-2.924804688,-2.808105469,-3.914550781,523,-487,318
6078,-2.922607422,-2.811035156,-3.918457031,505,-485,295
6083,-2.921142578,-2.810791016,-3.922607422,513,-483,304
6088,-2.913818359,-2.808837891,-3.919433594,486,-494,296
6093,-2.921875,-2.810302734,-3.924316406,499,-474,298
6098,-2.925292969,-2.810546875,-3.919433594,492,-484,310
6104,-2.920654297,-2.810058594,-3.925537109,498,-495,295
6109,-2.923583984,-2.812255859,-3.91796875,472,-486,299
6114,-2.923339844,-2.808837891,-3.919677734,483,-486,312
6119,-2.924316406,-2.809326172,-3.930664063,499,-496,310
6124,-2.920898438,-2.808105469,-3.919677734,495,-503,307
6129,-2.919189453,-2.810058594,-3.926269531,507,-496,308
6134,-2.921386719,-2.809082031,-3.925048828,491,-493,277
6139,-2.922607422,-2.810791016,-3.915039063,496,-476,315
6144,-2.922851563,-2.810546875,-3.916259766,471,-479,309
6149,-2.926269531,-2.811035156,-3.923583984,486,-494,300
6154,-2.920898438,-2.8125,-3.920410156,505,-469,304
6159,-2.918701172,-2.813476563,-3.922851563,490,-502,310
6164,-2.918457031,-2.808349609,-3.92578125,496,-522,330
6169,-2.922119141,-2.812255859,-3.929199219,497,-497,305
6174,-2.922119141,-2.807373047,-3.920410156,498,-502,304
6179,-2.925292969,-2.806396484,-3.922119141,507,-498,307
6184,-2.921875,-2.80859375,-3.922607422,499,-466,301
6189,-2.924316406,-2.806640625,-3.918212891,463,-463,312
6194,-2.920410156,-2.809814453,-3.926513672,497,-478,331
6199,-2.919921875,-2.805908203,-3.928222656,495,-481,312
6204,-2.925292969,-2.811035156,-3.919189453,505,-470,289
6209,-2.919189453,-2.810546875,-3.926513672,496,-509,303
6214,-2.918212891,-2.806884766,-3.921142578,507,-503,302
6219,-2.923339844,-2.808105469,-3.923583984,505,-471,308
6224,-2.923583984,-2.809570313,-3.922851563,496,-496,292
6229,-2.921630859,-2.811279297,-3.922119141,501,-498,315
6234,-2.920654297,-2.805419922,-3.923828125,475,-470,293
6239,-2.921630859,-2.809326172,-3.928955078,487,-455,278
6245,-2.925292969,-2.809570313,-3.925048828,471,-462,313
6250,-2.927978516,-2.810546875,-3.920410156,485,-483,308
6255,-2.923339844,-2.808349609,-3.923828125,510,-475,293
6260,-2.924072266,-2.814453125,-3.924316406,489,-487,303
6265,-2.923583984,-2.810546875,-3.916992188,512,-496,308
6270,-2.923095703,-2.808105469,-3.9296875,505,-501,291
6275,-2.919433594,-2.810791016,-3.916503906,514,-479,285
6280,-2.919433594,-2.807861328,-3.925292969,481,-491,304
6285,-2.918945313,-2.810058594,-3.9296875,490,-495,291
6290,-2.919677734,-2.812744141,-3.916259766,492,-477,291
6295,-2.922607422,-2.807373047,-3.918457031,478,-468,309
6300,-2.921630859,-2.810302734,-3.928710938,480,-477,306
6305,-2.923583984,-2.811523438,-3.920166016,515,-502,289
6310,-2.925537109,-2.806884766,-3.919677734,493,-515,313
6315,-2.922363281,-2.807128906,-3.924804688,521,-506,317
6320,-2.922119141,-2.808105469,-3.921875,497,-537,292
6325,-2.921142578,-2.807861328,-3.91796875,509,-490,327
6330,-2.920898438,-2.809082031,-3.919433594,499,-506,293
6335,-2.922851563,-2.812744141,-3.924072266,490,-477,307
6340,-2.921875,-2.811035156,-3.917236328,517,-467,306
6345,-2.916992188,-2.813964844,-3.922119141,498,-464,316
6350,-2.921875,-2.811279297,-3.920166016,497,-484,320
6355,-2.923828125,-2.809326172,-3.929199219,477,-481,294
6360,-2.922851563,-2.813476563,-3.915527344,507,-509,315
6365,-2.920654297,-2.808349609,-3.920654297,505,-503,291
6370,-2.921630859,-2.811279297,-3.921875,507,-502,312
6375,-2.921630859,-2.808105469,-3.922363281,485,-478,314
6381,-2.922363281,-2.812011719,-3.926757813,498,-467,338
6386,-2.920166016,-2.808349609,-3.926025391,476,-455,318
6391,-2.919921875,-2.811767578,-3.920410156,500,-475,287
6396,-2.920166016,-2.812744141,-3.918212891,491,-464,295
6401,-2.921630859,-2.807373047,-3.921386719,485,-491,311
6406,-2.920410156,-2.808105469,-3.921875,478,-479,305
6411,-2.919433594,-2.807617188,-3.928955078,508,-477,309
6416,-2.921630859,-2.811035156,-3.920166016,507,-495,304
6421,-2.916992188,-2.812255859,-3.925292969,497,-487,307
6426,-2.921630859,-2.808837891,-3.921630859,511,-486,284
6431,-2.923095703,-2.808349609,-3.917724609,497,-482,303
6436,-2.921386719,-2.812744141,-3.91796875,501,-471,295
6441,-2.922851563,-2.810302734,-3.91796875,493,-464,310
6446,-2.925537109,-2.807373047,-3.912841797,498,-458,316
6451,-2.925048828,-2.8125,-3.925292969,502,-462,305
6456,-2.923339844,-2.810058594,-3.926513672,496,-492,302
6461,-2.920654297,-2.806640625,-3.916259766,510,-472,292
6466,-2.918212891,-2.80859375,-3.927978516,510,-510,306
6471,-2.921142578,-2.805664063,-3.921630859,504,-495,308
6476,-2.919921875,-2.807373047,-3.920166016,514,-465,334
6481,-2.92578125,-2.806884766,-3.921386719,484,-495,303
6486,-2.921386719,-2.811523438,-3.917724609,479,-458,318
6491,-2.925048828,-2.808837891,-3.915283203,498,-462,292
6496,-2.925048828,-2.808837891,-3.920410156,494,-462,288
6501,-2.920410156,-2.812988281,-3.919921875,488,-451,309
6506,-2.925292969,-2.810546875,-3.926025391,512,-512,301
6511,-2.919189453,-2.809326172,-3.915283203,496,-502,302
6516,-2.924560547,-2.808837891,-3.918212891,500,-512,325
6522,-2.919677734,-2.810546875,-3.922607422,506,-506,294
6527,-2.921386719,-2.811279297,-3.919189453,498,-501,297
6532,-2.920410156,-2.807861328,-3.926269531,493,-462,309
6537,-2.919677734,-2.810058594,-3.927490234,510,-460,279
6542,-2.920654297,-2.806152344,-3.925292969,489,-471,307
6547,-2.922851563,-2.811523438,-3.917236328,491,-480,316
6552,-2.923583984,-2.810546875,-3.924316406,496,-501,301
6557,-2.923583984,-2.808105469,-3.914550781,488,-487,294
6562,-2.923095703,-2.810058594,-3.920410156,493,-501,293
6567,-2.922363281,-2.810302734,-3.927001953,505,-499,303
6572,-2.91796875,-2.810791016,-3.922851563,520,-494,322
6577,-2.919921875,-2.809082031,-3.919433594,511,-487,323
6582,-2.916748047,-2.811279297,-3.925292969,491,-484,304
6587,-2.925537109,-2.811035156,-3.922363281,480,-465,296
6592,-2.922607422,-2.811279297,-3.917724609,494,-455,318
6597,-2.923339844,-2.807617188,-3.930664063,496,-474,304
6602,-2.923095703,-2.809814453,-3.926513672,504,-465,298
6607,-2.917724609,-2.808349609,-3.922607422,501,-501,305
6612,-2.923339844,-2.807128906,-3.918457031,477,-497,315
6617,-2.923095703,-2.809570313,-3.920898438,515,-510,299
6622,-2.920898438,-2.808349609,-3.920654297,498,-490,298
6627,-2.920898438,-2.807373047,-3.924316406,502,-484,294
6632,-2.923095703,-2.810546875,-3.926513672,495,-452,303
6637,-2.919189453,-2.810058594,-3.920898438,501,-446,312
6642,-2.923828125,-2.807617188,-3.914794922,480,-466,294
6647,-2.925048828,-2.812988281,-3.918701172,510,-488,291
6652,-2.924804688,-2.811523438,-3.919189453,508,-512,300
6657,-2.922363281,-2.808349609,-3.927978516,483,-501,287
6663,-2.922851563,-2.808349609,-3.9296875,519,-499,294
6668,-2.919921875,-2.810791016,-3.927001953,506,-494,300
6673,-2.919921875,-2.809082031,-3.921630859,505,-474,284
6678,-2.922851563,-2.810546875,-3.917480469,501,-493,316
6683,-2.920898438,-2.810058594,-3.923828125,476,-477,299
6688,-2.924072266,-2.811523438,-3.921875,472,-487,282
6693,-2.922119141,-2.810058594,-3.921630859,486,-464,298
6698,-2.923095703,-2.807617188,-3.923583984,485,-470,288
6703,-2.921386719,-2.812744141,-3.923339844,513,-496,305
6708,-2.923339844,-2.80859375,-3.928222656,511,-476,312
6713,-2.921630859,-2.810546875,-3.921386719,494,-488,289
6718,-2.918457031,-2.806396484,-3.927978516,490,-517,307
6723,-2.922851563,-2.812744141,-3.923095703,478,-488,310
6728,-2.922851563,-2.809326172,-3.913574219,496,-484,291
6733,-2.925048828,-2.808105469,-3.929199219,491,-475,281
6738,-2.922363281,-2.809326172,-3.921142578,484,-466,302
6743,-2.923339844,-2.808837891,-3.926025391,482,-458,316
6748,-2.922363281,-2.808349609,-3.920898438,491,-476,289
6753,-2.921386719,-2.808105469,-3.920654297,480,-467,317
6758,-2.921630859,-2.809570313,-3.925048828,507,-479,326
6763,-2.924560547,-2.807128906,-3.915283203,497,-514,308
6768,-2.920166016,-2.808837891,-3.914794922,497,-510,315
6773,-2.923339844,-2.809326172,-3.928222656,510,-473,294
6778,-2.923339844,-2.810058594,-3.920898438,506,-480,308
6783,-2.920898438,-2.811279297,-3.916015625,500,-486,294
6788,-2.923339844,-2.812988281,-3.919189453,495,-478,301
6793,-2.922607422,-2.810058594,-3.924804688,498,-492,296
6798,-2.926513672,-2.810546875,-3.918457031,504,-474,297
6804,-2.925537109,-2.809082031,-3.916992188,494,-474,310
6809,-2.920654297,-2.813232422,-3.927001953,501,-458,288
6814,-2.921386719,-2.810791016,-3.920654297,501,-503,312
6819,-2.918457031,-2.810302734,-3.922363281,495,-483,304
6824,-2.920898438,-2.810302734,-3.925048828,502,-476,322
6829,-2.918945313,-2.814208984,-3.916259766,503,-487,323
6834,-2.917724609,-2.807373047,-3.923583984,512,-481,299
6839,-2.918212891,-2.806396484,-3.921142578,508,-475,318
6844,-2.924316406,-2.805175781,-3.915283203,492,-468,308
6849,-2.922363281,-2.809082031,-3.921875,487,-480,298
6854,-2.924560547,-2.805175781,-3.917236328,501,-473,292
6859,-2.927001953,-2.807373047,-3.926513672,490,-481,298
6864,-2.921630859,-2.811035156,-3.922607422,488,-492,293
6869,-2.919921875,-2.815185547,-3.924804688,498,-494,292
6874,-2.920654297,-2.809570313,-3.918212891,506,-508,326
6879,-2.920410156,-2.812255859,-3.922119141,502,-497,300
6884,-2.918945313,-2.807617188,-3.920410156,495,-472,303
6889,-2.923583984,-2.80859375,-3.916259766,522,-450,313
6894,-2.920166016,-2.810302734,-3.925048828,509,-469,312
6899,-2.922607422,-2.809326172,-3.924804688,496,-466,301
6904,-2.921142578,-2.810546875,-3.924316406,499,-494,312
6909,-2.922607422,-2.808105469,-3.915527344,488,-489,300
6914,-2.926025391,-2.809570313,-3.923095703,498,-510,302
6919,-2.919189453,-2.810791016,-3.922851563,487,-497,310
6924,-2.919921875,-2.806884766,-3.917724609,509,-464,302
6929,-2.921386719,-2.8125,-3.922851563,503,-485,296
6934,-2.920654297,-2.808837891,-3.921386719,490,-476,332
6939,-2.923095703,-2.807861328,-3.923583984,495,-494,301
6945,-2.922363281,-2.806640625,-3.921386719,485,-462,298
6950,-2.924804688,-2.810546875,-3.921630859,480,-455,283
6955,-2.917236328,-2.809326172,-3.924316406,482,-466,300
6960,-2.922363281,-2.810791016,-3.924804688,500,-496,293
6965,-2.920410156,-2.809082031,-3.923095703,501,-476,292
6970,-2.922607422,-2.809570313,-3.918212891,498,-492,296
6975,-2.922119141,-2.809326172,-3.917480469,483,-478,304
6980,-2.925048828,-2.808837891,-3.922119141,472,-482,299
6985,-2.918701172,-2.807617188,-3.917480469,503,-498,328
6990,-2.923095703,-2.80859375,-3.918945313,498,-474,327
6995,-2.918212891,-2.80859375,-3.927734375,507,-470,312
7000,-2.922119141,-2.811035156,-3.924560547,520,-481,300
7005,-2.924560547,-2.80859375,-3.916748047,490,-480,322
7010,-2.918212891,-2.810302734,-3.919433594,507,-468,308
7015,-2.924316406,-2.807128906,-3.925292969,486,-464,321
7020,-2.920410156,-2.812255859,-3.926269531,490,-473,288
7025,-2.921630859,-2.807373047,-3.925048828,484,-487,297
7030,-2.924804688,-2.807373047,-3.922607422,499,-477,294
7035,-2.919677734,-2.809570313,-3.920654297,487,-486,281
7040,-2.922363281,-2.808349609,-3.919189453,498,-466,319
7045,-2.923339844,-2.812255859,-3.924804688,508,-480,307
7050,-2.922363281,-2.811279297,-3.927001953,496,-459,296
7055,-2.920166016,-2.808837891,-3.914550781,488,-461,298
7060,-2.923583984,-2.808105469,-3.923583984,496,-491,307
7065,-2.923828125,-2.808349609,-3.923583984,517,-493,308
7070,-2.922851563,-2.807128906,-3.926269531,508,-495,294
7075,-2.920654297,-2.807861328,-3.92578125,511,-479,306
7081,-2.923095703,-2.810058594,-3.928466797,479,-474,311
7086,-2.921630859,-2.8125,-3.920166016,507,-489,290
7091,-2.926513672,-2.804931641,-3.922363281,482,-489,293
7096,-2.921386719,-2.810302734,-3.924560547,496,-483,320
7101,-2.920898438,-2.811279297,-3.927001953,499,-481,307
7106,-2.916992188,-2.811523438,-3.926025391,491,-499,310
7111,-2.923583984,-2.806884766,-3.921875,510,-489,294
7116,-2.917480469,-2.807617188,-3.912597656,511,-506,312
7121,-2.925537109,-2.810302734,-3.911132813,503,-480,310
7126,-2.919677734,-2.8125,-3.923339844,488,-500,306
7131,-2.920898438,-2.807861328,-3.920654297,488,-453,296
7136,-2.920410156,-2.809814453,-3.927490234,493,-478,309
7141,-2.921875,-2.810546875,-3.920410156,495,-484,298
7146,-2.921875,-2.811767578,-3.917724609,519,-464,299
7151,-2.923095703,-2.808837891,-3.920654297,492,-456,301
7156,-2.921875,-2.810302734,-3.916259766,501,-476,306
7161,-2.920410156,-2.807617188,-3.920898438,514,-496,315
7166,-2.923828125,-2.810058594,-3.922363281,505,-500,324
7171,-2.921630859,-2.811035156,-3.921386719,511,-492,301
7176,-2.920898438,-2.808349609,-3.922607422,482,-491,292
7181,-2.920654297,-2.807617188,-3.923828125,497,-481,312
7186,-2.922607422,-2.809570313,-3.931396484,484,-468,304
7191,-2.922851563,-2.812255859,-3.917480469,479,-485,318
7196,-2.920166016,-2.809326172,-3.920654297,481,-476,286
7201,-2.924560547,-2.813720703,-3.921386719,500,-483,314
7206,-2.922851563,-2.809814453,-3.926757813,497,-496,320
7211,-2.921630859,-2.808837891,-3.924560547,500,-489,325
7216,-2.922851563,-2.808837891,-3.914794922,506,-486,322
7222,-2.925292969,-2.809082031,-3.916748047,501,-517,312
7227,-2.921386719,-2.807617188,-3.919677734,497,-485,311
7232,-2.922607422,-2.809570313,-3.921142578,475,-480,294
7237,-2.924804688,-2.810058594,-3.918457031,499,-471,315
7242,-2.922119141,-2.808837891,-3.931396484,502,-479,300
7247,-2.920654297,-2.810791016,-3.920410156,496,-469,306
7252,-2.922607422,-2.807128906,-3.927001953,507,-484,289
7257,-2.920166016,-2.809082031,-3.926269531,489,-465,295
7262,-2.924072266,-2.812988281,-3.930664063,502,-475,300
7267,-2.919189453,-2.810791016,-3.921142578,501,-487,295
7272,-2.920898438,-2.810058594,-3.917724609,508,-512,312
7277,-2.921142578,-2.810791016,-3.920898438,509,-515,321
7282,-2.919433594,-2.808349609,-3.914306641,481,-479,279
7287,-2.922607422,-2.809326172,-3.921630859,496,-493,289
7292,-2.919677734,-2.810302734,-3.920654297,496,-480,312
7297,-2.920898438,-2.807617188,-3.923828125,494,-493,302
7302,-2.922851563,-2.811523438,-3.925048828,508,-498,318
7307,-2.921386719,-2.812011719,-3.927246094,506,-499,325
7312,-2.925537109,-2.803955078,-3.929199219,500,-491,328
7317,-2.918212891,-2.809326172,-3.917236328,504,-476,323
7322,-2.918212891,-2.809570313,-3.919189453,524,-501,302
7327,-2.923339844,-2.810791016,-3.921875,505,-496,282
7332,-2.921875,-2.8125,-3.919921875,487,-487,314
7337,-2.919189453,-2.810302734,-3.927246094,505,-485,293
7342,-2.922363281,-2.809814453,-3.92578125,496,-481,297
7347,-2.921875,-2.811523438,-3.920898438,510,-478,310
7352,-2.922851563,-2.808837891,-3.924804688,512,-488,301
7357,-2.921875,-2.808105469,-3.923095703,501,-474,303
7363,-2.922851563,-2.806152344,-3.920166016,517,-488,281
7368,-2.917724609,-2.813232422,-3.919677734,490,-493,317
7373,-2.921142578,-2.810546875,-3.91796875,496,-518,303
7378,-2.922607422,-2.813232422,-3.921630859,510,-472,322
7383,-2.923583984,-2.810058594,-3.915771484,519,-479,306
7388,-2.924560547,-2.810546875,-3.915527344,481,-494,300
7393,-2.924316406,-2.809814453,-3.929931641,503,-478,299
7398,-2.921142578,-2.809570313,-3.927001953,480,-460,312
7403,-2.924072266,-2.807128906,-3.926025391,477,-468,304
7408,-2.923339844,-2.811279297,-3.92578125,511,-480,307
7413,-2.922851563,-2.80859375,-3.918945313,496,-488,303
7418,-2.922363281,-2.808105469,-3.917236328,511,-480,300
7423,-2.924316406,-2.809570313,-3.920654297,498,-507,314
7428,-2.925537109,-2.808105469,-3.927734375,494,-487,276
7433,-2.920410156,-2.810302734,-3.911621094,492,-498,310
7438,-2.920166016,-2.808837891,-3.91796875,512,-500,320
7443,-2.920410156,-2.810791016,-3.926025391,517,-494,308
7448,-2.925048828,-2.809814453,-3.923095703,493,-463,284
7453,-2.923583984,-2.809814453,-3.925048828,481,-500,297
7458,-2.918212891,-2.810302734,-3.92578125,501,-505,295
7463,-2.925048828,-2.810791016,-3.923583984,479,-522,305
7468,-2.919433594,-2.810546875,-3.920166016,501,-486,295
7473,-2.925048828,-2.807861328,-3.923339844,496,-482,297
7478,-2.920898438,-2.806152344,-3.922119141,490,-478,317
7483,-2.920898438,-2.807617188,-3.926757813,491,-475,312
7488,-2.921875,-2.811035156,-3.921875,497,-472,330
7493,-2.920166016,-2.805664063,-3.925537109,490,-474,306
7498,-2.921142578,-2.814208984,-3.921142578,499,-483,302
7504,-2.919189453,-2.811767578,-3.925292969,487,-476,309
7509,-2.921630859,-2.810058594,-3.928955078,489,-482,299
7514,-2.919433594,-2.810791016,-3.919189453,506,-486,311
7519,-2.921386719,-2.811035156,-3.920166016,491,-479,304
7524,-2.924560547,-2.810546875,-3.920898438,490,-479,310
7529,-2.922607422,-2.808349609,-3.919921875,519,-496,321
7534,-2.922363281,-2.812744141,-3.928710938,504,-473,296
7539,-2.919433594,-2.810546875,-3.924560547,491,-458,318
7544,-2.923095703,-2.808349609,-3.921386719,498,-479,290
7549,-2.922607422,-2.810302734,-3.920410156,511,-472,316
7554,-2.922363281,-2.810546875,-3.914550781,484,-460,301
7559,-2.926025391,-2.808105469,-3.923828125,493,-483,298
7564,-2.919433594,-2.809082031,-3.916992188,520,-518,305
7569,-2.91796875,-2.808349609,-3.919433594,494,-487,315
7574,-2.919677734,-2.806152344,-3.918457031,496,-481,296
7579,-2.919921875,-2.812011719,-3.923583984,500,-462,288
7584,-2.922607422,-2.808349609,-3.923828125,483,-491,314
7589,-2.921142578,-2.808105469,-3.920166016,487,-493,298
7594,-2.922119141,-2.810791016,-3.929443359,491,-500,316
7599,-2.915771484,-2.812011719,-3.924072266,504,-490,270
7604,-2.92578125,-2.807128906,-3.927734375,502,-500,302
7609,-2.922119141,-2.809570313,-3.918701172,498,-476,320
7614,-2.923339844,-2.811767578,-3.924804688,504,-477,313
7619,-2.920410156,-2.805908203,-3.916015625,502,-483,319
7624,-2.921875,-2.811767578,-3.926757813,503,-517,307
7629,-2.921630859,-2.811767578,-3.919677734,486,-490,303
7634,-2.923828125,-2.810058594,-3.91796875,486,-486,292
7640,-2.918457031,-2.811523438,-3.920166016,513,-458,312
7645,-2.918457031,-2.8125,-3.928710938,482,-498,308
7650,-2.917236328,-2.809326172,-3.921875,517,-480,333
7655,-2.928222656,-2.809570313,-3.914306641,484,-479,289
7660,-2.924560547,-2.812011719,-3.922119141,505,-500,317
7665,-2.921630859,-2.809814453,-3.927978516,510,-505,320
7670,-2.921142578,-2.809570313,-3.926757813,490,-499,331
7675,-2.920654297,-2.808105469,-3.925048828,504,-496,325
7680,-2.922119141,-2.80859375,-3.928222656,532,-485,304
7685,-2.919921875,-2.808837891,-3.924316406,496,-466,299
7690,-2.919677734,-2.804931641,-3.923583984,485,-462,306
7695,-2.918945313,-2.80859375,-3.921142578,503,-482,310
7700,-2.924316406,-2.8125,-3.924316406,488,-492,309
7705,-2.923828125,-2.807861328,-3.919921875,495,-481,294
7710,-2.924072266,-2.805908203,-3.926269531,504,-503,321
7715,-2.921875,-2.814697266,-3.920654297,494,-504,307
7720,-2.916992188,-2.807373047,-3.920410156,490,-506,292
7725,-2.922851563,-2.808349609,-3.921386719,505,-483,304
7730,-2.921875,-2.811767578,-3.919921875,486,-490,291
7735,-2.923583984,-2.810546875,-3.920410156,498,-494,304
7740,-2.920166016,-2.809326172,-3.927978516,507,-462,292
7745,-2.923339844,-2.809814453,-3.921875,505,-462,305
7750,-2.924316406,-2.810058594,-3.917236328,475,-472,292
7755,-2.918945313,-2.809082031,-3.927001953,498,-477,305
7760,-2.920654297,-2.809326172,-3.916992188,500,-489,322
7765,-2.924072266,-2.813476563,-3.920898438,490,-473,295
7770,-2.916259766,-2.810791016,-3.918701172,499,-516,284
7775,-2.923095703,-2.810058594,-3.920410156,484,-499,303
7781,-2.922607422,-2.810791016,-3.926269531,514,-474,293
7786,-2.920166016,-2.810058594,-3.919433594,476,-492,317
7791,-2.918945313,-2.806396484,-3.926025391,514,-458,300
7796,-2.920654297,-2.812255859,-3.928222656,498,-471,281
7801,-2.923828125,-2.809814453,-3.91796875,473,-486,330
7806,-2.925048828,-2.806396484,-3.919677734,490,-456,320
7811,-2.925048828,-2.811767578,-3.931396484,509,-485,295
7816,-2.924316406,-2.8046875,-3.917236328,489,-482,304
7821,-2.920166016,-2.809570313,-3.916992188,481,-512,298
7826,-2.921630859,-2.810302734,-3.920898438,501,-480,307
7831,-2.922119141,-2.807617188,-3.921386719,502,-511,312
7836,-2.919189453,-2.809814453,-3.924072266,518,-495,279
7841,-2.918945313,-2.806396484,-3.924560547,495,-475,312
7846,-2.919677734,-2.807617188,-3.924560547,489,-477,283
7851,-2.923583984,-2.810058594,-3.917236328,508,-476,306
7856,-2.92578125,-2.808837891,-3.913085938,494,-472,295
7861,-2.921142578,-2.807373047,-3.9296875,481,-480,304
7866,-2.923095703,-2.811035156,-3.921142578,492,-480,302
7871,-2.922363281,-2.809814453,-3.924316406,495,-484,287
7876,-2.918701172,-2.808349609,-3.923339844,519,-485,317
7881,-2.919677734,-2.813232422,-3.923583984,503,-505,325
7886,-2.922851563,-2.809082031,-3.923828125,496,-487,300
7891,-2.921630859,-2.809814453,-3.922119141,505,-492,298
7896,-2.919189453,-2.811767578,-3.918457031,485,-476,290
7901,-2.922119141,-2.809814453,-3.917480469,490,-487,291
7906,-2.925048828,-2.807617188,-3.928222656,495,-467,321
7911,-2.920654297,-2.812011719,-3.914550781,479,-469,291
7916,-2.92578125,-2.813720703,-3.920654297,526,-494,323
7922,-2.922363281,-2.810791016,-3.922363281,490,-484,300
7927,-2.922363281,-2.810791016,-3.918945313,495,-486,288
7932,-2.919921875,-2.810546875,-3.922119141,485,-494,309
7937,-2.922851563,-2.807617188,-3.916992188,482,-490,302
7942,-2.924316406,-2.80859375,-3.921386719,498,-482,282
7947,-2.922851563,-2.810058594,-3.9296875,485,-444,298
7952,-2.921630859,-2.810791016,-3.922607422,500,-487,283
7957,-2.924316406,-2.811523438,-3.92578125,493,-471,331
7962,-2.924804688,-2.809570313,-3.919433594,489,-484,311
7967,-2.924316406,-2.806152344,-3.922607422,490,-493,306
7972,-2.924560547,-2.809570313,-3.920654297,494,-490,301
7977,-2.917480469,-2.811767578,-3.925537109,502,-487,320
7982,-2.922119141,-2.811523438,-3.922607422,486,-496,274
7987,-2.922119141,-2.811279297,-3.924560547,508,-492,313
7992,-2.919921875,-2.811035156,-3.922851563,474,-462,310
7997,-2.920654297,-2.814208984,-3.927490234,470,-477,321
8002,-2.922851563,-2.807373047,-3.923339844,493,-491,316
8007,-2.921386719,-2.808837891,-3.921142578,479,-472,307
8012,-2.923095703,-2.808105469,-3.92578125,517,-485,284
8017,-2.921875,-2.809082031,-3.915527344,481,-468,312
8022,-2.919189453,-2.806396484,-3.920898438,512,-487,292
8027,-2.919921875,-2.807861328,-3.920410156,513,-506,320
8032,-2.922851563,-2.811035156,-3.921630859,505,-493,284
8037,-2.919677734,-2.807373047,-3.92578125,503,-503,305
8042,-2.919433594,-2.810058594,-3.924316406,502,-483,300
8047,-2.920898438,-2.810546875,-3.921875,511,-480,313
8052,-2.919921875,-2.809814453,-3.918212891,495,-483,296
8057,-2.923095703,-2.811523438,-3.925537109,497,-493,315
8063,-2.916015625,-2.810058594,-3.919677734,475,-495,312
8068,-2.919189453,-2.810302734,-3.922363281,502,-490,328
8073,-2.923095703,-2.811523438,-3.919677734,494,-480,317
8078,-2.920166016,-2.808105469,-3.921630859,505,-505,304
8083,-2.922607422,-2.809082031,-3.921630859,514,-514,317
8088,-2.925048828,-2.810302734,-3.921875,485,-485,303
8093,-2.920654297,-2.811035156,-3.929443359,509,-473,291
8098,-2.921142578,-2.807373047,-3.922607422,493,-484,294
8103,-2.922363281,-2.811035156,-3.920410156,478,-463,309
8108,-2.925048828,-2.811767578,-3.929443359,497,-485,328
8113,-2.924560547,-2.812011719,-3.921142578,483,-494,299
8118,-2.924560547,-2.80859375,-3.925537109,488,-502,293
8123,-2.919189453,-2.810302734,-3.922119141,527,-512,305
8128,-2.919921875,-2.80859375,-3.923339844,516,-499,315
8133,-2.918212891,-2.80859375,-3.916015625,493,-497,300
8138,-2.921142578,-2.807373047,-3.922851563,478,-478,298
8143,-2.923583984,-2.80859375,-3.921142578,482,-509,307
8148,-2.922119141,-2.808105469,-3.919189453,491,-445,303
8153,-2.922363281,-2.811035156,-3.921386719,487,-458,331
8158,-2.9296875,-2.812011719,-3.924804688,491,-464,295
8163,-2.919189453,-2.814208984,-3.923339844,491,-505,320
8168,-2.92578125,-2.807128906,-3.919921875,503,-503,317
8173,-2.921386719,-2.811767578,-3.921142578,503,-504,312
8178,-2.924316406,-2.809570313,-3.922119141,517,-523,290
8183,-2.919921875,-2.807128906,-3.921630859,510,-493,303
8188,-2.920410156,-2.807861328,-3.928955078,521,-484,331
8193,-2.919677734,-2.809570313,-3.927490234,519,-479,320
8198,-2.918701172,-2.811523438,-3.922607422,500,-474,320
8204,-2.920898438,-2.811523438,-3.922119141,470,-474,318
8209,-2.921386719,-2.8125,-3.926025391,506,-479,310
8214,-2.923583984,-2.808349609,-3.920898438,497,-478,292
8219,-2.920654297,-2.809814453,-3.923095703,504,-487,307
8224,-2.920166016,-2.80859375,-3.924072266,503,-492,302
8229,-2.917480469,-2.807861328,-3.919189453,510,-501,268
8234,-2.920654297,-2.806152344,-3.919189453,503,-470,322
8239,-2.923828125,-2.810058594,-3.913085938,482,-494,331
8244,-2.922363281,-2.810546875,-3.921875,500,-463,339
8249,-2.924072266,-2.815185547,-3.918701172,495,-460,314
8254,-2.927490234,-2.810302734,-3.918945313,509,-454,316
8259,-2.921630859,-2.807128906,-3.923583984,484,-487,286
8264,-2.924316406,-2.808837891,-3.920654297,522,-482,316
8269,-2.922851563,-2.809082031,-3.914550781,502,-475,296
8274,-2.919677734,-2.80859375,-3.915771484,515,-506,304
8279,-2.919677734,-2.806396484,-3.925292969,511,-493,283
8284,-2.919677734,-2.808837891,-3.918212891,492,-486,272
8289,-2.920654297,-2.810302734,-3.917480469,509,-473,298
8294,-2.919677734,-2.805664063,-3.920654297,513,-472,298
8299,-2.918945313,-2.815673828,-3.919677734,500,-473,289
8304,-2.920166016,-2.812255859,-3.911376953,486,-486,301
8309,-2.925048828,-2.811767578,-3.927978516,514,-470,316
8314,-2.926025391,-2.809326172,-3.926269531,495,-479,301
8319,-2.921875,-2.811767578,-3.927978516,505,-481,276
8324,-2.921875,-2.810791016,-3.922363281,503,-499,294
8329,-2.922119141,-2.809814453,-3.925292969,485,-492,336
8334,-2.923095703,-2.805419922,-3.923339844,490,-495,319
8340,-2.920654297,-2.811279297,-3.931152344,496,-502,329
8345,-2.922119141,-2.812011719,-3.921630859,505,-471,289
8350,-2.919921875,-2.808349609,-3.919189453,488,-483,296
8355,-2.920898438,-2.807617188,-3.923583984,491,-491,320
8360,-2.921386719,-2.812988281,-3.919921875,504,-473,331
8365,-2.924804688,-2.807128906,-3.919189453,503,-482,322
8370,-2.923339844,-2.810546875,-3.915527344,519,-506,293
8375,-2.92578125,-2.809326172,-3.925048828,524,-498,291
8380,-2.918457031,-2.807617188,-3.919921875,515,-491,322
8385,-2.917236328,-2.804931641,-3.926025391,492,-483,282
8390,-2.920654297,-2.807373047,-3.920898438,500,-454,336
8395,-2.919677734,-2.806396484,-3.918701172,487,-468,316
8400,-2.922607422,-2.810791016,-3.925048828,486,-483,305
8405,-2.921875,-2.810302734,-3.924560547,486,-476,285
8410,-2.916503906,-2.805175781,-3.927001953,484,-500,324
8415,-2.920410156,-2.810791016,-3.917236328,504,-485,318
8420,-2.919677734,-2.807861328,-3.918945313,511,-492,311
8425,-2.925537109,-2.808837891,-3.916259766,521,-476,300
8430,-2.918945313,-2.811035156,-3.926025391,491,-452,322
8435,-2.919433594,-2.809814453,-3.920166016,519,-487,304
8440,-2.923828125,-2.8125,-3.927734375,497,-487,308
8445,-2.918457031,-2.812988281,-3.921386719,488,-491,316
8450,-2.923583984,-2.807617188,-3.923583984,496,-488,301
8455,-2.923095703,-2.809082031,-3.926513672,494,-486,301
8460,-2.922851563,-2.807373047,-3.924804688,484,-474,308
8465,-2.921142578,-2.80859375,-3.919921875,504,-507,287
8470,-2.920898438,-2.807617188,-3.923828125,483,-476,307
8475,-2.924072266,-2.808105469,-3.931152344,488,-486,313
8481,-2.921386719,-2.808837891,-3.91796875,473,-492,294
8486,-2.922363281,-2.808105469,-3.918701172,502,-476,303
8491,-2.921630859,-2.807128906,-3.91796875,505,-490,301
8496,-2.921142578,-2.809326172,-3.927001953,494,-476,310
8501,-2.919189453,-2.80859375,-3.919189453,471,-468,301
8506,-2.923583984,-2.807861328,-3.91796875,500,-490,294
8511,-2.920654297,-2.808837891,-3.930419922,487,-478,336
8516,-2.920166016,-2.809570313,-3.927490234,507,-481,311
8521,-2.923828125,-2.808837891,-3.926025391,504,-489,290
8526,-2.920410156,-2.809814453,-3.929931641,497,-471,303
8531,-2.920654297,-2.811035156,-3.918945313,494,-481,306
8536,-2.921630859,-2.812011719,-3.918945313,480,-497,309
8541,-2.920654297,-2.80859375,-3.922607422,503,-488,301
8546,-2.922851563,-2.809082031,-3.922851563,499,-497,298
8551,-2.918945313,-2.811279297,-3.921630859,515,-471,319
8556,-2.924804688,-2.809326172,-3.922607422,513,-492,321
8561,-2.920410156,-2.810302734,-3.929443359,503,-477,307
8566,-2.921142578,-2.809326172,-3.924316406,494,-490,322
8571,-2.920654297,-2.811035156,-3.924316406,493,-484,298
8576,-2.920654297,-2.810791016,-3.921630859,511,-495,317
8581,-2.922119141,-2.808837891,-3.918212891,483,-476,289
8586,-2.920410156,-2.809326172,-3.922119141,489,-462,336
8591,-2.922607422,-2.806884766,-3.928466797,490,-467,308
8596,-2.917480469,-2.807617188,-3.924804688,515,-482,311
8601,-2.922851563,-2.808349609,-3.91796875,500,-495,320
8606,-2.924316406,-2.812744141,-3.924316406,494,-480,302
8611,-2.923339844,-2.809082031,-3.913818359,500,-501,305
8616,-2.919189453,-2.808837891,-3.924560547,507,-485,311
8622,-2.923095703,-2.807373047,-3.921386719,495,-487,304
8627,-2.920410156,-2.809814453,-3.927001953,508,-493,304
8632,-2.919921875,-2.806396484,-3.916748047,489,-485,294
8637,-2.926269531,-2.807617188,-3.924560547,517,-473,303
8642,-2.924316406,-2.810546875,-3.923339844,500,-478,305
8647,-2.920898438,-2.811767578,-3.916015625,483,-461,288
8652,-2.922363281,-2.809570313,-3.923339844,492,-486,335
8657,-2.920410156,-2.807128906,-3.923095703,494,-475,295
8662,-2.922363281,-2.809326172,-3.917236328,499,-493,316
8667,-2.921875,-2.810791016,-3.920166016,508,-475,323
8672,-2.920898438,-2.806640625,-3.915283203,501,-487,278
8677,-2.920410156,-2.807373047,-3.927734375,488,-501,282
8682,-2.920166016,-2.809082031,-3.920654297,496,-494,306
8687,-2.924072266,-2.811279297,-3.928955078,506,-469,312
8692,-2.921875,-2.809814453,-3.922363281,494,-471,313
8697,-2.922851563,-2.811279297,-3.912841797,509,-487,303
8702,-2.922851563,-2.808105469,-3.921386719,482,-469,303
8707,-2.922607422,-2.808837891,-3.919677734,500,-476,295
8712,-2.924804688,-2.810058594,-3.923095703,487,-485,316
8717,-2.921630859,-2.807617188,-3.917236328,507,-480,304
8722,-2.921386719,-2.808349609,-3.919921875,497,-473,341
8727,-2.918701172,-2.813232422,-3.916992188,513,-480,297
8732,-2.922607422,-2.812011719,-3.923583984,493,-499,297
8737,-2.917480469,-2.810791016,-3.927490234,484,-489,294
8742,-2.921875,-2.806884766,-3.917480469,487,-486,299
8747,-2.922851563,-2.812011719,-3.92578125,504,-502,321
8752,-2.920898438,-2.811767578,-3.924072266,523,-465,316
8757,-2.922607422,-2.807617188,-3.926513672,513,-494,290
8763,-2.918212891,-2.813476563,-3.923583984,489,-488,316
8768,-2.920166016,-2.806396484,-3.926269531,481,-513,308
8773,-2.922607422,-2.814697266,-3.928710938,479,-465,296
8778,-2.923583984,-2.811523438,-3.919189453,505,-500,305
8783,-2.922851563,-2.809082031,-3.922119141,513,-484,304
8788,-2.923095703,-2.811035156,-3.916748047,497,-484,306
8793,-2.919921875,-2.811767578,-3.919433594,502,-468,301
8798,-2.922851563,-2.810058594,-3.920898438,496,-472,292
8803,-2.922607422,-2.810791016,-3.922607422,506,-457,307
8808,-2.920654297,-2.809326172,-3.923583984,488,-495,304
8813,-2.921875,-2.810058594,-3.914550781,491,-492,314
8818,-2.918945313,-2.806640625,-3.926757813,491,-473,292
8823,-2.923095703,-2.809814453,-3.920898438,494,-491,302
8828,-2.922851563,-2.810302734,-3.915771484,497,-487,310
8833,-2.920166016,-2.808837891,-3.908447266,490,-491,314
8838,-2.922851563,-2.810546875,-3.920654297,500,-481,295
8843,-2.91796875,-2.808105469,-3.922119141,496,-480,315
8848,-2.922363281,-2.810546875,-3.919921875,514,-474,321
8853,-2.926269531,-2.805175781,-3.921630859,498,-458,304
8858,-2.921875,-2.810058594,-3.927978516,496,-495,298
8863,-2.921630859,-2.807128906,-3.924560547,487,-475,285
8868,-2.923828125,-2.807128906,-3.918701172,487,-485,288
8873,-2.920166016,-2.808349609,-3.916259766,481,-502,287
8878,-2.920654297,-2.806396484,-3.927978516,500,-499,283
8883,-2.922363281,-2.808837891,-3.920898438,496,-475,300
8888,-2.922119141,-2.809082031,-3.923583984,502,-489,309
8893,-2.920654297,-2.807861328,-3.916015625,505,-477,314
8899,-2.921142578,-2.809082031,-3.918457031,496,-469,316
8904,-2.924072266,-2.808105469,-3.924804688,513,-457,297
8909,-2.923339844,-2.809082031,-3.922363281,484,-455,306
8914,-2.923828125,-2.811767578,-3.921630859,503,-483,313
8919,-2.919921875,-2.808837891,-3.917480469,499,-486,310
8924,-2.923339844,-2.80859375,-3.921630859,496,-493,319
8929,-2.925537109,-2.812744141,-3.922119141,505,-478,294
8934,-2.920654297,-2.808105469,-3.919189453,495,-483,314
8939,-2.922119141,-2.810302734,-3.927246094,490,-487,302
8944,-2.919677734,-2.8125,-3.927490234,489,-478,322
8949,-2.921875,-2.809082031,-3.918945313,501,-477,311
8954,-2.920898438,-2.805908203,-3.923583984,486,-471,326
8959,-2.922363281,-2.807617188,-3.924072266,497,-458,306
8964,-2.925537109,-2.810546875,-3.921142578,483,-484,299
8969,-2.921142578,-2.810791016,-3.924316406,492,-497,309
8974,-2.918212891,-2.809082031,-3.917236328,504,-494,287
8979,-2.923095703,-2.80859375,-3.913818359,497,-514,300
8984,-2.920166016,-2.810058594,-3.918945313,511,-495,282
8989,-2.922119141,-2.809814453,-3.92578125,500,-497,313
8994,-2.921142578,-2.808105469,-3.920898438,497,-456,288
8999,-2.919433594,-2.806152344,-3.922851563,479,-495,320
9004,-2.922119141,-2.809326172,-3.922607422,500,-485,309
9009,-2.924072266,-2.808105469,-3.921386719,477,-458,310
9014,-2.923095703,-2.810791016,-3.921142578,502,-490,307
9019,-2.923095703,-2.814208984,-3.918945313,507,-506,293
9024,-2.921142578,-2.815185547,-3.920410156,498,-508,314
9029,-2.922607422,-2.809326172,-3.919921875,520,-479,290
9034,-2.920654297,-2.806152344,-3.920410156,492,-505,305
9040,-2.923828125,-2.809326172,-3.9296875,490,-492,322
9045,-2.917480469,-2.811767578,-3.923095703,471,-466,292
9050,-2.923095703,-2.808349609,-3.921875,486,-482,308
9055,-2.922119141,-2.808105469,-3.929931641,490,-447,303
9060,-2.925537109,-2.811035156,-3.926513672,510,-452,307
9065,-2.918945313,-2.811767578,-3.915527344,506,-480,309
9070,-2.924072266,-2.808105469,-3.919433594,491,-485,326
9075,-2.925048828,-2.810791016,-3.925537109,503,-488,300
9080,-2.91796875,-2.80859375,-3.916503906,514,-496,313
9085,-2.918945313,-2.807861328,-3.927246094,508,-491,287
9090,-2.920898438,-2.807861328,-3.925292969,505,-462,322
9095,-2.919189453,-2.812744141,-3.911376953,482,-481,317
9100,-2.920654297,-2.810546875,-3.920654297,498,-455,327
9105,-2.919189453,-2.810791016,-3.9296875,500,-448,329
9110,-2.926025391,-2.808349609,-3.925292969,481,-449,304
9115,-2.923828125,-2.810791016,-3.920654297,499,-481,320
9120,-2.923828125,-2.807861328,-3.928466797,482,-502,306
9125,-2.922607422,-2.812744141,-3.924072266,507,-505,311
9130,-2.922607422,-2.812255859,-3.919433594,511,-507,315
9135,-2.923583984,-2.810058594,-3.918212891,495,-500,295
9140,-2.920410156,-2.809326172,-3.925292969,507,-502,290
9145,-2.918457031,-2.809082031,-3.916992188,498,-452,312
9150,-2.919677734,-2.810058594,-3.920166016,498,-468,275
9155,-2.919677734,-2.810546875,-3.92578125,513,-464,293
9160,-2.926513672,-2.812255859,-3.920166016,489,-473,293
9165,-2.921386719,-2.811523438,-3.918457031,501,-505,278
9170,-2.922851563,-2.810302734,-3.923828125,504,-471,298
9175,-2.922607422,-2.810302734,-3.919677734,491,-538,296
9181,-2.922607422,-2.809326172,-3.924560547,484,-515,306
9186,-2.923339844,-2.808349609,-3.923339844,476,-501,293
9191,-2.921386719,-2.809082031,-3.92578125,489,-490,321
9196,-2.920898438,-2.812011719,-3.91796875,474,-468,319
9201,-2.920898438,-2.810791016,-3.918212891,485,-475,303
9206,-2.921630859,-2.809082031,-3.920166016,479,-460,328
9211,-2.922363281,-2.809570313,-3.919677734,497,-495,318
9216,-2.924316406,-2.808105469,-3.921142578,502,-467,296
9221,-2.924560547,-2.805908203,-3.924316406,496,-493,293
9226,-2.919433594,-2.813720703,-3.923828125,498,-477,304
9231,-2.921630859,-2.811523438,-3.920654297,520,-508,315
9236,-2.920410156,-2.809082031,-3.921630859,501,-494,327
9241,-2.923339844,-2.810302734,-3.922851563,520,-472,301
9246,-2.920898438,-2.810058594,-3.921386719,501,-476,300
9251,-2.917724609,-2.809326172,-3.917724609,489,-467,296
9256,-2.923583984,-2.80859375,-3.926269531,511,-453,308
9261,-2.925292969,-2.810058594,-3.922119141,503,-474,289
9266,-2.924072266,-2.804931641,-3.9140625,506,-465,303
9271,-2.923095703,-2.812744141,-3.919921875,510,-516,299
9276,-2.920898438,-2.810791016,-3.923339844,490,-526,317
9281,-2.921386719,-2.810791016,-3.928222656,481,-511,308
9286,-2.921142578,-2.808837891,-3.924072266,523,-503,311
9291,-2.921630859,-2.808105469,-3.927001953,483,-476,321
9296,-2.919433594,-2.806640625,-3.917480469,507,-466,311
9301,-2.918457031,-2.80859375,-3.923828125,484,-463,328
9306,-2.921630859,-2.808837891,-3.926513672,483,-448,291
9311,-2.919433594,-2.809570313,-3.927490234,496,-500,277
9316,-2.922607422,-2.809082031,-3.916748047,491,-483,308
9322,-2.924804688,-2.809082031,-3.923339844,488,-470,288
9327,-2.923828125,-2.811767578,-3.924804688,498,-513,296
9332,-2.923339844,-2.809570313,-3.923828125,507,-514,309
9337,-2.919433594,-2.806884766,-3.91796875,492,-498,304
9342,-2.921875,-2.807128906,-3.912597656,494,-486,281
9347,-2.915283203,-2.808349609,-3.925537109,481,-487,307
9352,-2.921875,-2.812988281,-3.926269531,489,-467,302
9357,-2.927978516,-2.808349609,-3.928710938,502,-460,309
9362,-2.922119141,-2.80859375,-3.927490234,485,-478,295
9367,-2.926757813,-2.809570313,-3.924072266,494,-509,312
9372,-2.925537109,-2.810546875,-3.917724609,487,-492,301
9377,-2.91796875,-2.811523438,-3.921875,500,-503,331
9382,-2.921386719,-2.811279297,-3.91796875,496,-500,317
9387,-2.921875,-2.811035156,-3.925537109,496,-506,300
9392,-2.919677734,-2.807128906,-3.916503906,523,-462,276
9397,-2.919921875,-2.806640625,-3.921630859,484,-462,317
9402,-2.917480469,-2.811767578,-3.920898438,505,-486,318
9407,-2.924316406,-2.810791016,-3.920654297,487,-482,286
9412,-2.923339844,-2.811035156,-3.919433594,484,-439,292
9417,-2.923339844,-2.812011719,-3.922363281,496,-472,300
9422,-2.920898438,-2.806396484,-3.923583984,492,-474,299
9427,-2.923339844,-2.8046875,-3.925292969,491,-496,299
9432,-2.921386719,-2.807128906,-3.919677734,493,-492,289
9437,-2.921630859,-2.811279297,-3.925292969,502,-507,304
9442,-2.924316406,-2.808105469,-3.921630859,502,-475,317
9447,-2.91796875,-2.812255859,-3.921630859,483,-487,293
9452,-2.922607422,-2.809570313,-3.927734375,487,-484,317
9457,-2.918212891,-2.809570313,-3.921875,507,-476,314
9463,-2.924316406,-2.810058594,-3.918945313,487,-462,299
9468,-2.919677734,-2.810058594,-3.919189453,490,-464,306
9473,-2.924072266,-2.807861328,-3.919921875,468,-466,342
9478,-2.920654297,-2.808349609,-3.918457031,498,-521,310
9483,-2.919921875,-2.809082031,-3.924560547,522,-501,307
9488,-2.920898438,-2.812744141,-3.926269531,511,-482,291
9493,-2.919189453,-2.809326172,-3.920410156,492,-487,289
9498,-2.920898438,-2.811035156,-3.91796875,490,-486,298
9503,-2.922607422,-2.8125,-3.926757813,485,-469,301
9508,-2.921875,-2.806884766,-3.920654297,491,-504,300
9513,-2.922607422,-2.810302734,-3.916748047,502,-488,291
9518,-2.924560547,-2.809570313,-3.927978516,522,-498,303
9523,-2.923583984,-2.810302734,-3.923583984,498,-493,312
9528,-2.918212891,-2.809082031,-3.920410156,507,-492,306
9533,-2.920654297,-2.810546875,-3.9140625,508,-477,310
9538,-2.923095703,-2.808837891,-3.924560547,495,-489,320
9543,-2.920898438,-2.80859375,-3.920166016,500,-475,313
9548,-2.922119141,-2.808349609,-3.923095703,479,-482,311
9553,-2.921142578,-2.807128906,-3.925537109,510,-481,298
9558,-2.919433594,-2.8125,-3.919189453,495,-473,300
9563,-2.922119141,-2.811279297,-3.924072266,506,-473,321
9568,-2.920654297,-2.808837891,-3.923583984,497,-483,304
9573,-2.920898438,-2.806640625,-3.915283203,499,-484,282
9578,-2.920410156,-2.811035156,-3.918212891,505,-479,301
9583,-2.921142578,-2.809814453,-3.91796875,515,-484,306
9588,-2.919921875,-2.807861328,-3.924804688,524,-482,324
9593,-2.922851563,-2.808837891,-3.920410156,517,-462,318
9599,-2.921630859,-2.807617188,-3.924316406,490,-481,311
9604,-2.919189453,-2.810791016,-3.918945313,497,-474,305
9609,-2.922607422,-2.813232422,-3.918701172,497,-459,302
9614,-2.921875,-2.811767578,-3.920166016,485,-472,294
9619,-2.924072266,-2.810546875,-3.918701172,510,-479,319
9624,-2.920410156,-2.810058594,-3.922851563,505,-480,304
9629,-2.923583984,-2.811279297,-3.920654297,511,-469,317
9634,-2.927734375,-2.806152344,-3.926025391,498,-481,303
9639,-2.923095703,-2.812744141,-3.914794922,483,-505,310
9644,-2.921630859,-2.809570313,-3.915771484,506,-492,288
9649,-2.924316406,-2.808837891,-3.928466797,504,-482,307
9654,-2.924804688,-2.803466797,-3.931884766,504,-480,300
9659,-2.922607422,-2.807861328,-3.919433594,486,-480,316
9664,-2.922119141,-2.807861328,-3.920654297,476,-466,319
9669,-2.927734375,-2.810302734,-3.922119141,494,-465,303
9674,-2.926513672,-2.8125,-3.916015625,502,-465,298
9679,-2.919677734,-2.808105469,-3.918701172,482,-487,306
9684,-2.920898438,-2.808837891,-3.919677734,499,-498,305
9689,-2.921630859,-2.806640625,-3.923339844,512,-494,322
9694,-2.91796875,-2.809326172,-3.920410156,521,-508,313
9699,-2.919921875,-2.805908203,-3.923583984,506,-502,301
9704,-2.919921875,-2.808349609,-3.919189453,495,-469,304
9709,-2.924316406,-2.810791016,-3.926757813,484,-483,307
9714,-2.922119141,-2.809082031,-3.918457031,494,-467,314
9719,-2.920166016,-2.8125,-3.930175781,481,-487,297
9724,-2.924560547,-2.812744141,-3.92578125,485,-484,308
9729,-2.923095703,-2.807617188,-3.922363281,490,-488,299
9734,-2.924804688,-2.806884766,-3.924804688,496,-480,305
9740,-2.919433594,-2.807617188,-3.922851563,493,-468,313
9745,-2.919433594,-2.804931641,-3.921630859,490,-512,309
9750,-2.922607422,-2.810302734,-3.922851563,477,-496,304
9755,-2.924072266,-2.808837891,-3.927246094,491,-489,310
9760,-2.920898438,-2.806640625,-3.918457031,482,-495,319
9765,-2.916992188,-2.808837891,-3.925048828,490,-480,310
9770,-2.923828125,-2.811767578,-3.917724609,530,-472,297
9775,-2.920654297,-2.811279297,-3.915283203,509,-505,301
9780,-2.923828125,-2.806396484,-3.917724609,496,-476,299
9785,-2.924316406,-2.809570313,-3.931640625,472,-479,309
9790,-2.920410156,-2.813720703,-3.924072266,492,-511,320
9795,-2.921630859,-2.807617188,-3.924072266,499,-471,314
9800,-2.922607422,-2.808105469,-3.922119141,499,-501,286
9805,-2.926025391,-2.809814453,-3.921630859,498,-485,289
9810,-2.920166016,-2.809570313,-3.91796875,484,-483,310
9815,-2.920410156,-2.811767578,-3.920654297,491,-492,312
9820,-2.920410156,-2.808349609,-3.925048828,510,-484,284
9825,-2.923583984,-2.811035156,-3.930175781,481,-477,323
9830,-2.921875,-2.804443359,-3.926269531,500,-500,282
9835,-2.925292969,-2.808349609,-3.923339844,519,-500,289
9840,-2.918945313,-2.812744141,-3.92578125,490,-502,301
9845,-2.920898438,-2.80859375,-3.922607422,465,-493,290
9850,-2.921630859,-2.809326172,-3.918945313,472,-459,299
9855,-2.921142578,-2.807128906,-3.927978516,488,-475,290
9860,-2.924316406,-2.806152344,-3.918701172,487,-456,286
9865,-2.922851563,-2.808837891,-3.920898438,484,-477,322
9870,-2.919677734,-2.8125,-3.924560547,507,-453,308
9875,-2.922119141,-2.808837891,-3.919921875,493,-504,298
9881,-2.920410156,-2.807373047,-3.923095703,509,-484,314
9886,-2.922607422,-2.810791016,-3.923095703,517,-505,294
9891,-2.916503906,-2.811035156,-3.919433594,503,-507,301
9896,-2.921386719,-2.812988281,-3.921386719,508,-483,305
9901,-2.922851563,-2.806884766,-3.924316406,479,-445,313
9906,-2.926269531,-2.809326172,-3.922851563,487,-483,294
9911,-2.923095703,-2.809326172,-3.916503906,473,-461,310
9916,-2.922851563,-2.810302734,-3.927246094,494,-500,303
9921,-2.920410156,-2.812988281,-3.917724609,486,-464,301
9926,-2.922363281,-2.809814453,-3.920898438,514,-485,314
9931,-2.92578125,-2.808349609,-3.925048828,500,-460,289
9936,-2.923828125,-2.807373047,-3.916259766,504,-476,290
9941,-2.922363281,-2.807617188,-3.923095703,517,-506,327
9946,-2.923828125,-2.811767578,-3.918945313,504,-484,277
9951,-2.920410156,-2.811767578,-3.928466797,514,-489,306
9956,-2.922851563,-2.810058594,-3.92578125,483,-474,309
9961,-2.922363281,-2.810302734,-3.920166016,497,-474,313
9966,-2.925292969,-2.808837891,-3.930419922,505,-455,309
9971,-2.920898438,-2.809326172,-3.920654297,514,-481,307
9976,-2.924560547,-2.80859375,-3.922119141,490,-486,310
9981,-2.919189453,-2.807617188,-3.922851563,498,-492,291
9986,-2.923828125,-2.811767578,-3.919677734,505,-499,293
9991,-2.91796875,-2.811523438,-3.917724609,485,-484,292
9996,-2.924560547,-2.809814453,-3.913818359,493,-470,313
10001,-2.921386719,-2.807373047,-3.925292969,495,-479,295
10006,-2.922119141,-2.810302734,-3.917236328,501,-476,312
10011,-2.918945313,-2.812255859,-3.927246094,473,-491,312
10016,-2.923339844,-2.812011719,-3.921875,485,-507,330
10022,-2.921630859,-2.813232422,-3.923583984,494,-484,301
10027,-2.925048828,-2.80859375,-3.925048828,502,-496,282
10032,-2.923828125,-2.810546875,-3.921142578,483,-474,299
10037,-2.921630859,-2.811523438,-3.923339844,505,-512,312
10042,-2.917236328,-2.811035156,-3.926025391,498,-503,305
10047,-2.921630859,-2.811035156,-3.924804688,491,-501,296
10052,-2.919677734,-2.806152344,-3.924804688,494,-460,302
10057,-2.921875,-2.808837891,-3.924560547,472,-475,317
10062,-2.918945313,-2.809326172,-3.924804688,497,-467,312
10067,-2.923583984,-2.80859375,-3.921142578,517,-471,310
10072,-2.921386719,-2.806640625,-3.924072266,496,-490,336
10077,-2.923828125,-2.809326172,-3.920898438,513,-511,307
10082,-2.923095703,-2.807617188,-3.919433594,499,-489,316
10087,-2.921875,-2.808105469,-3.915039063,503,-518,293
10092,-2.918945313,-2.810791016,-3.919921875,518,-487,320
10097,-2.925292969,-2.809326172,-3.919677734,476,-472,288
10102,-2.925048828,-2.812011719,-3.919921875,499,-477,306
10107,-2.924316406,-2.814453125,-3.925048828,504,-465,320
10112,-2.923095703,-2.809570313,-3.919433594,493,-489,330
10117,-2.921142578,-2.808349609,-3.922851563,519,-472,323
10122,-2.922607422,-2.809326172,-3.919677734,499,-480,314
10127,-2.919433594,-2.809326172,-3.918457031,491,-472,306
10132,-2.921630859,-2.810546875,-3.926513672,502,-478,298
10137,-2.920898438,-2.808105469,-3.922607422,505,-486,307
10142,-2.922851563,-2.810058594,-3.920898438,482,-477,336
10147,-2.919189453,-2.807861328,-3.922607422,489,-493,311
10152,-2.921630859,-2.805175781,-3.916259766,510,-460,324
10158,-2.925048828,-2.812744141,-3.922363281,493,-459,300
10163,-2.919677734,-2.813964844,-3.921630859,508,-506,307
10168,-2.921630859,-2.810058594,-3.922851563,497,-475,323
10173,-2.926513672,-2.809326172,-3.921386719,498,-492,317
10178,-2.924316406,-2.810302734,-3.927246094,515,-490,309
10183,-2.923095703,-2.8125,-3.921630859,495,-500,304
10188,-2.920654297,-2.808349609,-3.919189453,491,-504,302
10193,-2.918701172,-2.807617188,-3.927001953,486,-482,288
10198,-2.921875,-2.805664063,-3.929931641,503,-472,310
10203,-2.921875,-2.811523438,-3.919189453,472,-467,308
10208,-2.923583984,-2.810058594,-3.917724609,491,-470,280
10213,-2.924560547,-2.811035156,-3.919189453,503,-482,306
10218,-2.920166016,-2.812744141,-3.921142578,475,-462,318
10223,-2.920166016,-2.806640625,-3.911376953,498,-520,291
10228,-2.921386719,-2.812744141,-3.9140625,500,-502,306
10233,-2.920410156,-2.811767578,-3.922363281,512,-495,294
10238,-2.921142578,-2.8125,-3.919189453,503,-535,293
10243,-2.921630859,-2.806884766,-3.918457031,496,-475,320
10248,-2.920410156,-2.80859375,-3.914306641,482,-485,302
10253,-2.922607422,-2.808349609,-3.922851563,494,-476,294
10258,-2.922607422,-2.807617188,-3.925537109,491,-469,299
10263,-2.923095703,-2.8125,-3.923095703,480,-466,305
10268,-2.927490234,-2.807617188,-3.921875,497,-461,297
10273,-2.923095703,-2.8125,-3.918212891,498,-456,285
10278,-2.923095703,-2.807861328,-3.919189453,480,-523,286
10283,-2.921386719,-2.80859375,-3.916992188,502,-491,299
10288,-2.920166016,-2.810058594,-3.919189453,494,-509,314
10293,-2.921875,-2.810302734,-3.916748047,512,-496,322
10299,-2.919677734,-2.80859375,-3.920166016,498,-474,297
10304,-2.922607422,-2.812011719,-3.928466797,502,-470,300
10309,-2.921142578,-2.810302734,-3.923828125,486,-469,315
10314,-2.924072266,-2.807128906,-3.918457031,493,-484,301
10319,-2.922119141,-2.806884766,-3.916748047,482,-511,311
10324,-2.926269531,-2.80859375,-3.921875,486,-476,274
10329,-2.920898438,-2.809082031,-3.921875,496,-494,330
10334,-2.923095703,-2.808349609,-3.926269531,508,-484,346
10339,-2.921630859,-2.812255859,-3.919189453,506,-489,302
10344,-2.923095703,-2.810302734,-3.922119141,499,-472,309
10349,-2.925537109,-2.807128906,-3.921875,490,-481,312
10354,-2.920654297,-2.812988281,-3.920166016,504,-469,283
10359,-2.922851563,-2.808349609,-3.919921875,509,-465,301
10364,-2.922607422,-2.810058594,-3.920898438,488,-487,299
10369,-2.924560547,-2.810791016,-3.920898438,495,-476,316
10374,-2.921630859,-2.807128906,-3.921142578,490,-494,299
10379,-2.924560547,-2.809570313,-3.927001953,490,-476,309
10384,-2.916992188,-2.80859375,-3.925292969,487,-477,310
10389,-2.921875,-2.808349609,-3.920898438,484,-486,307
10394,-2.919677734,-2.812744141,-3.930664063,506,-486,322
10399,-2.922851563,-2.809570313,-3.923828125,495,-475,323
10404,-2.918945313,-2.807861328,-3.929931641,484,-480,290
10409,-2.924316406,-2.811523438,-3.917480469,485,-492,310
10414,-2.923339844,-2.807861328,-3.923583984,504,-473,303
10419,-2.919677734,-2.810791016,-3.923583984,517,-495,326
10424,-2.923095703,-2.810791016,-3.920410156,488,-467,298
10429,-2.924072266,-2.808349609,-3.918457031,482,-506,290
10434,-2.922119141,-2.809326172,-3.916992188,496,-510,299
10440,-2.924316406,-2.811523438,-3.922119141,489,-470,299
10445,-2.924804688,-2.80859375,-3.920654297,482,-496,317
10450,-2.923095703,-2.806152344,-3.919677734,501,-492,307
10455,-2.919677734,-2.810546875,-3.919677734,493,-451,304
10460,-2.921630859,-2.810302734,-3.923583984,505,-484,305
10465,-2.922607422,-2.810058594,-3.927001953,510,-492,281
10470,-2.922851563,-2.811523438,-3.918945313,525,-480,310
10475,-2.924316406,-2.811035156,-3.922119141,499,-460,312
10480,-2.925048828,-2.808349609,-3.923339844,517,-513,325
10485,-2.919189453,-2.811279297,-3.921142578,498,-489,308
10490,-2.917480469,-2.80859375,-3.921630859,493,-488,291
10495,-2.920166016,-2.809814453,-3.933105469,491,-485,301
10500,-2.922363281,-2.811523438,-3.914306641,471,-478,290
10505,-2.920898438,-2.805664063,-3.925537109,510,-471,296
10510,-2.920410156,-2.807373047,-3.918701172,480,-469,302
10515,-2.923828125,-2.806884766,-3.914794922,482,-479,306
10520,-2.921875,-2.809814453,-3.921386719,494,-467,287
10525,-2.920898438,-2.808349609,-3.917724609,480,-482,289
10530,-2.92578125,-2.809814453,-3.923339844,522,-496,290
10535,-2.920166016,-2.813232422,-3.924072266,487,-495,280
10540,-2.921875,-2.811767578,-3.919433594,487,-488,326
10545,-2.922851563,-2.810302734,-3.919189453,506,-489,291
10550,-2.924072266,-2.809082031,-3.923339844,473,-478,276
10555,-2.923828125,-2.808837891,-3.926025391,499,-497,299
10560,-2.921142578,-2.809814453,-3.923828125,495,-473,293
10565,-2.92578125,-2.807373047,-3.918701172,492,-493,299
10570,-2.919921875,-2.809326172,-3.923828125,489,-479,312
10575,-2.923095703,-2.807617188,-3.915771484,510,-466,277
10581,-2.926269531,-2.811767578,-3.920654297,504,-496,303
10586,-2.923339844,-2.810058594,-3.921142578,527,-496,288
10591,-2.915039063,-2.811767578,-3.915527344,498,-481,312
10596,-2.916503906,-2.810302734,-3.930175781,494,-476,290
10601,-2.918701172,-2.808105469,-3.915527344,495,-488,311
10606,-2.922363281,-2.806884766,-3.917236328,513,-480,312
10611,-2.923828125,-2.807617188,-3.921142578,507,-482,304
10616,-2.921630859,-2.810546875,-3.915527344,501,-451,300
10621,-2.921142578,-2.80859375,-3.921386719,488,-455,302
10626,-2.920166016,-2.809570313,-3.921875,501,-484,296
10631,-2.921875,-2.809082031,-3.926269531,476,-476,324
10636,-2.924804688,-2.807861328,-3.922363281,495,-475,300
10641,-2.922119141,-2.809082031,-3.91796875,495,-474,317
10646,-2.922119141,-2.810546875,-3.922851563,512,-494,300
10651,-2.920166016,-2.808105469,-3.920166016,495,-479,319
10656,-2.920898438,-2.811035156,-3.920898438,504,-481,302
10661,-2.922607422,-2.8125,-3.93359375,504,-466,322
10666,-2.926513672,-2.807617188,-3.922607422,505,-487,289
10671,-2.922363281,-2.810058594,-3.928466797,492,-480,294
10676,-2.924072266,-2.811279297,-3.917480469,505,-475,319
