Time,Acc_X,Acc_Y,Acc_Z,Gyro_X,Gyro_Y,Gyro_Z
5,-2.945800781,-3.826171875,-4.9296875,445,-475,370
10,-2.946289063,-3.823486328,-4.934326172,452,-487,381
15,-2.948486328,-3.824707031,-4.931640625,465,-491,367
20,-2.946533203,-3.828369141,-4.941894531,485,-498,392
25,-2.946533203,-3.825439453,-4.932861328,452,-478,372
30,-2.947998047,-3.823730469,-4.935058594,459,-471,357
35,-2.947998047,-3.828125,-4.935546875,432,-465,390
40,-2.944335938,-3.825439453,-4.930419922,449,-492,355
45,-2.947021484,-3.823974609,-4.926025391,444,-497,382
50,-2.946533203,-3.825195313,-4.934814453,452,-493,388
55,-2.948242188,-3.823486328,-4.931640625,480,-482,386
60,-2.947753906,-3.824462891,-4.934814453,475,-474,372
65,-2.950683594,-3.822753906,-4.927978516,473,-491,395
70,-2.946044922,-3.827392578,-4.925537109,452,-500,390
75,-2.948730469,-3.828125,-4.940185547,453,-466,375
80,-2.948242188,-3.822509766,-4.931152344,481,-484,388
85,-2.950927734,-3.824707031,-4.935058594,463,-495,410
90,-2.950439453,-3.826416016,-4.934082031,458,-475,401
95,-2.950683594,-3.818603516,-4.934814453,459,-486,355
100,-2.947509766,-3.824462891,-4.938476563,442,-499,373
106,-2.947265625,-3.827636719,-4.937988281,432,-516,389
111,-2.947021484,-3.829345703,-4.934814453,471,-487,378
116,-2.948486328,-3.822998047,-4.933837891,450,-481,393
121,-2.946533203,-3.825683594,-4.933837891,440,-490,382
126,-2.949951172,-3.823974609,-4.939941406,448,-482,375
131,-2.949951172,-3.821289063,-4.938964844,453,-465,374
136,-2.944091797,-3.830566406,-4.931396484,453,-464,378
141,-2.948242188,-3.823242188,-4.93359375,480,-482,376
146,-2.947509766,-3.826416016,-4.935058594,489,-470,384
151,-2.949462891,-3.825195313,-4.936767578,451,-481,378
156,-2.951416016,-3.821777344,-4.934082031,455,-485,378
161,-2.951416016,-3.826660156,-4.932128906,453,-482,371
166,-2.946777344,-3.826171875,-4.932373047,452,-468,371
171,-2.947021484,-3.824951172,-4.934814453,451,-492,376
176,-2.948242188,-3.825683594,-4.929443359,440,-489,396
181,-2.942138672,-3.824462891,-4.937011719,469,-492,396
186,-2.945068359,-3.825439453,-4.931152344,483,-474,366
191,-2.947021484,-3.828613281,-4.934326172,466,-498,391
196,-2.9453125,-3.82421875,-4.934570313,474,-465,376
201,-2.947509766,-3.82421875,-4.93359375,455,-483,374
206,-2.944335938,-3.828857422,-4.933349609,454,-486,386
211,-2.950195313,-3.822998047,-4.931884766,459,-492,373
216,-2.949462891,-3.823974609,-4.936767578,473,-471,379
221,-2.944335938,-3.825927734,-4.9296875,455,-459,379
226,-2.94921875,-3.825439453,-4.935546875,460,-483,377
231,-2.948242188,-3.823730469,-4.933105469,447,-502,380
236,-2.946533203,-3.825195313,-4.940917969,457,-500,382
242,-2.942871094,-3.823974609,-4.934326172,454,-500,390
247,-2.951171875,-3.825927734,-4.938476563,441,-479,384
252,-2.946777344,-3.823486328,-4.932128906,456,-504,372
257,-2.950927734,-3.823730469,-4.932373047,474,-511,414
262,-2.94921875,-3.82421875,-4.927490234,454,-519,381
267,-2.947509766,-3.827392578,-4.936767578,463,-491,358
272,-2.943115234,-3.827148438,-4.935302734,455,-491,365
277,-2.949707031,-3.821777344,-4.932128906,467,-482,363
282,-2.950683594,-3.822021484,-4.930419922,463,-488,370
287,-2.947265625,-3.820556641,-4.931152344,463,-482,361
292,-2.949707031,-3.823486328,-4.929199219,466,-467,396
297,-2.947998047,-3.828125,-4.935058594,458,-478,398
302,-2.945800781,-3.823242188,-4.934082031,453,-493,339
307,-2.946533203,-3.824707031,-4.936279297,440,-493,397
312,-2.948242188,-3.824462891,-4.935302734,445,-479,379
317,-2.947265625,-3.823730469,-4.930419922,468,-492,384
322,-2.944091797,-3.826660156,-4.934570313,480,-458,380
327,-2.946289063,-3.829589844,-4.928710938,447,-487,372
332,-2.947753906,-3.8203125,-4.937011719,462,-481,370
337,-2.94140625,-3.823242188,-4.930664063,440,-491,369
342,-2.945800781,-3.828613281,-4.935058594,466,-479,374
347,-2.946533203,-3.823242188,-4.937255859,441,-495,387
352,-2.9453125,-3.825927734,-4.934814453,479,-495,392
357,-2.945068359,-3.826416016,-4.928466797,469,-479,405
362,-2.952148438,-3.822509766,-4.9296875,437,-480,393
367,-2.947753906,-3.829101563,-4.930175781,460,-500,382
372,-2.946777344,-3.829589844,-4.934082031,465,-468,372
378,-2.947265625,-3.827880859,-4.938476563,473,-462,375
383,-2.948974609,-3.822753906,-4.93359375,429,-475,404
388,-2.943115234,-3.827392578,-4.931640625,463,-468,371
393,-2.947509766,-3.822753906,-4.936279297,474,-479,383
398,-2.946289063,-3.825439453,-4.93359375,445,-506,372
403,-2.944335938,-3.823242188,-4.936279297,467,-492,363
408,-2.948242188,-3.824951172,-4.931884766,458,-502,365
413,-2.944824219,-3.825683594,-4.939453125,451,-483,383
418,-2.947265625,-3.824707031,-4.939208984,455,-474,414
423,-2.946533203,-3.825927734,-4.932373047,459,-464,359
428,-2.947509766,-3.824462891,-4.933349609,441,-478,399
433,-2.951416016,-3.825927734,-4.935546875,456,-494,382
438,-2.949707031,-3.825439453,-4.938232422,464,-474,378
443,-2.948730469,-3.827636719,-4.919921875,455,-508,395
448,-2.946533203,-3.82421875,-4.938720703,463,-474,401
453,-2.946533203,-3.828857422,-4.937255859,455,-488,402
458,-2.9453125,-3.827636719,-4.934570313,454,-468,393
463,-2.947265625,-3.823242188,-4.936523438,455,-506,389
468,-2.945800781,-3.824462891,-4.940917969,451,-479,369
473,-2.947509766,-3.823974609,-4.932861328,482,-500,375
478,-2.949707031,-3.825927734,-4.923583984,453,-480,389
483,-2.948486328,-3.822998047,-4.935546875,450,-490,393
488,-2.950683594,-3.827636719,-4.937011719,454,-492,375
493,-2.947509766,-3.826416016,-4.936767578,481,-482,354
498,-2.946533203,-3.829833984,-4.934082031,431,-460,388
503,-2.945556641,-3.829101563,-4.93359375,476,-492,380
508,-2.947998047,-3.827148438,-4.929443359,461,-489,403
514,-2.948242188,-3.825927734,-4.929199219,430,-504,382
519,-2.948486328,-3.825195313,-4.932617188,468,-486,384
524,-2.945556641,-3.823242188,-4.931640625,469,-473,390
529,-2.948730469,-3.821533203,-4.928466797,449,-460,384
534,-2.946289063,-3.825683594,-4.932861328,441,-460,368
539,-2.947509766,-3.829589844,-4.932373047,453,-497,380
544,-2.952392578,-3.823730469,-4.932861328,464,-501,400
549,-2.946777344,-3.827636719,-4.935791016,449,-489,380
554,-2.945556641,-3.824462891,-4.933349609,472,-503,387
559,-2.951416016,-3.823242188,-4.935302734,458,-493,366
564,-2.948974609,-3.82421875,-4.932373047,442,-481,393
569,-2.946044922,-3.827148438,-4.937744141,447,-495,373
574,-2.944824219,-3.82421875,-4.924072266,470,-478,368
579,-2.944824219,-3.822753906,-4.934082031,468,-504,374
584,-2.945800781,-3.825927734,-4.937011719,463,-499,399
589,-2.949951172,-3.823974609,-4.932617188,438,-483,386
594,-2.945068359,-3.822509766,-4.934326172,454,-495,377
599,-2.946533203,-3.827392578,-4.938964844,453,-501,403
604,-2.947509766,-3.828857422,-4.929931641,467,-492,381
609,-2.948242188,-3.825927734,-4.932373047,465,-465,391
614,-2.949462891,-3.828369141,-4.933349609,462,-471,370
619,-2.947998047,-3.823242188,-4.93359375,462,-490,361
624,-2.947753906,-3.823486328,-4.937988281,466,-474,386
629,-2.947509766,-3.825927734,-4.935302734,448,-480,374
634,-2.945800781,-3.825683594,-4.933349609,436,-472,378
639,-2.942871094,-3.826660156,-4.925292969,460,-466,395
644,-2.948730469,-3.830078125,-4.930664063,449,-492,365
650,-2.947998047,-3.822509766,-4.932861328,463,-467,375
655,-2.945556641,-3.823242188,-4.931152344,463,-486,400
660,-2.947265625,-3.825195313,-4.932617188,452,-460,390
665,-2.948730469,-3.82421875,-4.9375,440,-492,361
670,-2.948242188,-3.826171875,-4.931396484,459,-496,375
675,-2.950927734,-3.826171875,-4.935546875,455,-489,376
680,-2.949951172,-3.823974609,-4.927001953,481,-495,390
685,-2.948730469,-3.825927734,-4.9375,459,-471,387
690,-2.945800781,-3.826171875,-4.930664063,456,-469,378
695,-2.949707031,-3.821777344,-4.942138672,456,-488,392
700,-2.944091797,-3.825683594,-4.938720703,462,-495,399
705,-2.946289063,-3.827148438,-4.930419922,445,-472,399
710,-2.947753906,-3.823486328,-4.926025391,434,-499,370
715,-2.945800781,-3.826171875,-4.936279297,454,-487,399
720,-2.945556641,-3.822265625,-4.927978516,474,-477,377
725,-2.949951172,-3.825195313,-4.931396484,462,-477,382
730,-2.950927734,-3.826416016,-4.930175781,459,-493,357
735,-2.944824219,-3.824707031,-4.933349609,452,-472,378
740,-2.947265625,-3.825927734,-4.934326172,452,-473,391
745,-2.948242188,-3.827880859,-4.937744141,465,-498,380
750,-2.947998047,-3.826416016,-4.931884766,441,-486,370
755,-2.946533203,-3.824707031,-4.937255859,471,-496,365
760,-2.948730469,-3.821533203,-4.931152344,472,-465,392
765,-2.9453125,-3.825683594,-4.935791016,449,-480,406
770,-2.947265625,-3.8203125,-4.933349609,456,-472,373
775,-2.946777344,-3.825439453,-4.934326172,459,-490,389
780,-2.948730469,-3.826171875,-4.937011719,453,-493,363
786,-2.946777344,-3.825927734,-4.936523438,450,-488,387
791,-2.951904297,-3.825927734,-4.938232422,450,-467,370
796,-2.948486328,-3.826416016,-4.934570313,464,-489,397
801,-2.947998047,-3.827392578,-4.932861328,438,-443,375
806,-2.947998047,-3.820556641,-4.933105469,449,-469,374
811,-2.943847656,-3.826660156,-4.932861328,453,-498,382
816,-2.949462891,-3.824707031,-4.925048828,476,-479,371
821,-2.945556641,-3.819580078,-4.931640625,469,-499,376
826,-2.948974609,-3.822265625,-4.931884766,469,-484,379
831,-2.94921875,-3.82421875,-4.926757813,465,-485,394
836,-2.9453125,-3.825439453,-4.936035156,446,-460,387
841,-2.949462891,-3.829101563,-4.93359375,447,-478,367
846,-2.947265625,-3.823974609,-4.933837891,468,-502,375
851,-2.946044922,-3.825195313,-4.930419922,465,-482,389
856,-2.946044922,-3.825439453,-4.932861328,451,-483,405
861,-2.947509766,-3.821289063,-4.936523438,460,-481,401
866,-2.950927734,-3.828125,-4.934082031,459,-483,398
871,-2.948486328,-3.825439453,-4.926269531,458,-491,391
876,-2.948730469,-3.828369141,-4.935302734,459,-474,372
881,-2.951171875,-3.825195313,-4.926757813,470,-487,374
886,-2.948974609,-3.822265625,-4.931640625,457,-505,369
891,-2.947998047,-3.819580078,-4.929443359,466,-484,380
896,-2.947998047,-3.824951172,-4.927490234,456,-492,395
901,-2.948974609,-3.829101563,-4.935546875,445,-454,380
906,-2.953369141,-3.826416016,-4.934326172,456,-500,399
911,-2.947265625,-3.829101563,-4.930908203,462,-478,391
916,-2.948486328,-3.82421875,-4.933349609,462,-482,400
922,-2.947021484,-3.824462891,-4.935302734,470,-501,389
927,-2.944335938,-3.822753906,-4.93359375,466,-475,382
932,-2.948242188,-3.826171875,-4.936035156,477,-487,365
937,-2.949462891,-3.823242188,-4.935058594,456,-469,365
942,-2.946777344,-3.82421875,-4.934082031,449,-488,366
947,-2.944824219,-3.825683594,-4.937011719,453,-500,368
952,-2.947265625,-3.822998047,-4.929199219,461,-498,385
957,-2.949707031,-3.826171875,-4.935302734,436,-476,407
962,-2.94921875,-3.822998047,-4.937255859,463,-482,393
967,-2.951416016,-3.821044922,-4.933105469,455,-489,376
972,-2.946777344,-3.827148438,-4.936035156,468,-475,357
977,-2.947998047,-3.823242188,-4.933837891,445,-512,373
982,-2.947998047,-3.828125,-4.934814453,467,-498,389
987,-2.947998047,-3.826904297,-4.936279297,459,-464,384
992,-2.947021484,-3.827880859,-4.927490234,460,-503,383
997,-2.949707031,-3.822998047,-4.935302734,469,-484,377
1002,-2.94921875,-3.825927734,-4.927490234,450,-498,380
1007,-2.943603516,-3.826660156,-4.931640625,454,-458,365
1012,-2.950927734,-3.819824219,-4.935546875,461,-477,372
1017,-2.951171875,-3.827148438,-4.931396484,469,-488,370
1022,-2.946289063,-3.825195313,-4.928222656,450,-493,372
1027,-2.947265625,-3.824462891,-4.937255859,471,-492,398
1032,-2.945556641,-3.827392578,-4.935302734,457,-505,369
1037,-2.948730469,-3.828125,-4.940429688,447,-465,361
1042,-2.947509766,-3.825195313,-4.935058594,464,-458,376
1047,-2.944335938,-3.825195313,-4.93359375,466,-483,371
1052,-2.947265625,-3.82421875,-4.929931641,468,-486,384
1058,-2.950195313,-3.822265625,-4.933349609,461,-492,387
1063,-2.94921875,-3.822265625,-4.926513672,446,-476,370
1068,-2.947998047,-3.823730469,-4.932373047,445,-485,372
1073,-2.944335938,-3.826416016,-4.937744141,448,-473,394
1078,-2.948486328,-3.826416016,-4.922363281,449,-472,363
1083,-2.950195313,-3.824707031,-4.930908203,438,-482,383
1088,-2.946533203,-3.827636719,-4.927246094,475,-476,372
1093,-2.948730469,-3.821777344,-4.939208984,447,-468,385
1098,-2.950927734,-3.817871094,-4.936767578,437,-484,389
1103,-2.946289063,-3.825195313,-4.934814453,449,-493,390
1108,-2.947753906,-3.827148438,-4.935302734,448,-477,371
1113,-2.947265625,-3.823974609,-4.931884766,448,-483,397
1118,-2.94921875,-3.819335938,-4.939941406,453,-490,381
1123,-2.944824219,-3.822753906,-4.937255859,457,-479,372
1128,-2.949951172,-3.822509766,-4.932373047,456,-512,371
1133,-2.948242188,-3.82421875,-4.934082031,425,-470,372
1138,-2.946777344,-3.825683594,-4.939208984,476,-481,365
1143,-2.949951172,-3.823730469,-4.926513672,443,-466,386
1148,-2.946533203,-3.829101563,-4.931884766,448,-496,361
1153,-2.942626953,-3.826660156,-4.934814453,471,-467,389
1158,-2.946044922,-3.826416016,-4.934082031,441,-511,405
1163,-2.949707031,-3.823486328,-4.93359375,439,-473,388
1168,-2.943115234,-3.825683594,-4.931640625,477,-469,379
1173,-2.948242188,-3.824951172,-4.936523438,452,-490,373
1178,-2.946533203,-3.823486328,-4.924804688,443,-487,373
1183,-2.945556641,-3.827392578,-4.936035156,456,-493,360
1188,-2.948730469,-3.822021484,-4.934082031,479,-494,375
1194,-2.950683594,-3.822021484,-4.93359375,460,-476,372
1199,-2.949707031,-3.827392578,-4.937744141,449,-503,373
1204,-2.944824219,-3.826416016,-4.926269531,445,-473,389
1209,-2.948242188,-3.824462891,-4.939208984,461,-492,377
1214,-2.948242188,-3.825439453,-4.930419922,453,-488,370
1219,-2.949951172,-3.820556641,-4.938964844,449,-478,390
1224,-2.945800781,-3.825683594,-4.931640625,470,-518,374
1229,-2.948486328,-3.823730469,-4.93359375,458,-518,383
1234,-2.946289063,-3.824951172,-4.941894531,458,-490,409
1239,-2.950439453,-3.828125,-4.936767578,426,-480,388
1244,-2.946044922,-3.827392578,-4.931396484,446,-484,351
1249,-2.948974609,-3.827636719,-4.940673828,443,-502,387
1254,-2.944824219,-3.828369141,-4.932373047,465,-486,384
1259,-2.942138672,-3.825439453,-4.936523438,455,-469,380
1264,-2.949462891,-3.826904297,-4.933349609,428,-500,389
1269,-2.952148438,-3.823242188,-4.938232422,453,-482,373
1274,-2.950439453,-3.829345703,-4.926757813,460,-471,408
1279,-2.948730469,-3.825439453,-4.934570313,469,-467,364
1284,-2.947998047,-3.826660156,-4.934814453,452,-489,362
1289,-2.946777344,-3.826171875,-4.928466797,454,-473,382
1294,-2.946777344,-3.819824219,-4.937744141,459,-496,374
1299,-2.947753906,-3.824707031,-4.93359375,433,-480,369
1304,-2.950195313,-3.824707031,-4.932373047,442,-512,394
1309,-2.947753906,-3.82421875,-4.939697266,447,-497,371
1314,-2.947753906,-3.823486328,-4.936523438,447,-468,387
1319,-2.944091797,-3.826660156,-4.935791016,469,-495,365
1324,-2.946533203,-3.823974609,-4.936523438,480,-483,372
1330,-2.948242188,-3.825439453,-4.937988281,444,-472,376
1335,-2.946533203,-3.827636719,-4.933349609,461,-487,383
1340,-2.946777344,-3.822998047,-4.936523438,459,-473,403
1345,-2.9453125,-3.824707031,-4.935302734,449,-514,385
1350,-2.946289063,-3.822021484,-4.940917969,444,-480,375
1355,-2.949951172,-3.825683594,-4.9375,467,-487,357
1360,-2.947753906,-3.823974609,-4.936523438,471,-511,367
1365,-2.9453125,-3.823974609,-4.936279297,433,-493,366
1370,-2.946777344,-3.824707031,-4.931640625,448,-475,394
1375,-2.947753906,-3.828369141,-4.933105469,465,-480,378
1380,-2.946044922,-3.830322266,-4.936767578,450,-488,390
1385,-2.947753906,-3.824462891,-4.933837891,461,-483,380
1390,-2.945800781,-3.825195313,-4.929199219,465,-498,379
1395,-2.948242188,-3.827392578,-4.940429688,482,-489,369
1400,-2.944824219,-3.828125,-4.927734375,463,-488,358
1405,-2.950195313,-3.825195313,-4.931396484,451,-473,391
1410,-2.947753906,-3.825195313,-4.930664063,452,-494,380
1415,-2.949951172,-3.822509766,-4.934814453,476,-494,367
1420,-2.948486328,-3.826416016,-4.932617188,457,-473,365
1425,-2.947509766,-3.829589844,-4.930664063,466,-485,384
1430,-2.945068359,-3.822753906,-4.938476563,454,-488,367
1435,-2.947753906,-3.825927734,-4.936035156,466,-488,396
1440,-2.945068359,-3.822509766,-4.937988281,441,-472,390
1445,-2.947998047,-3.823486328,-4.930908203,457,-502,387
1450,-2.948974609,-3.828369141,-4.928710938,464,-496,379
1455,-2.947265625,-3.824462891,-4.934082031,471,-470,371
1460,-2.946777344,-3.824951172,-4.937011719,462,-487,381
1466,-2.947753906,-3.827392578,-4.939453125,465,-481,387
1471,-2.945800781,-3.826904297,-4.93359375,457,-465,389
1476,-2.950683594,-3.825195313,-4.934326172,446,-478,366
1481,-2.950195313,-3.824707031,-4.937988281,457,-474,383
1486,-2.947021484,-3.827880859,-4.931884766,445,-460,378
1491,-2.943847656,-3.824707031,-4.936767578,459,-498,375
1496,-2.947509766,-3.825927734,-4.934570313,477,-468,358
1501,-2.947265625,-3.822753906,-4.936035156,459,-480,390
1506,-2.945556641,-3.827636719,-4.930419922,452,-484,359
1511,-2.948242188,-3.826416016,-4.938720703,453,-490,386
1516,-2.948974609,-3.822998047,-4.931152344,466,-493,361
1521,-2.951416016,-3.825439453,-4.936279297,486,-479,359
1526,-2.946044922,-3.823486328,-4.929443359,457,-496,390
1531,-2.946777344,-3.8203125,-4.935791016,463,-495,380
1536,-2.949462891,-3.824951172,-4.939941406,458,-478,385
1541,-2.946044922,-3.82421875,-4.935791016,451,-462,380
1546,-2.948486328,-3.823730469,-4.934326172,434,-497,391
1551,-2.948242188,-3.826416016,-4.937011719,467,-479,384
1556,-2.947509766,-3.828369141,-4.935791016,458,-480,374
1561,-2.950439453,-3.823242188,-4.927490234,458,-477,406
1566,-2.948730469,-3.827636719,-4.930664063,465,-469,376
1571,-2.945800781,-3.822998047,-4.938964844,441,-484,382
1576,-2.950439453,-3.825195313,-4.930175781,442,-482,364
1581,-2.944824219,-3.825927734,-4.939208984,462,-470,366
1586,-2.950439453,-3.823730469,-4.934082031,446,-484,373
1591,-2.948730469,-3.826660156,-4.930664063,455,-468,386
1596,-2.948486328,-3.820556641,-4.935546875,446,-469,382
1602,-2.948730469,-3.825927734,-4.931396484,465,-482,372
1607,-2.948242188,-3.820800781,-4.930664063,448,-487,369
1612,-2.948486328,-3.825683594,-4.936767578,456,-479,372
1617,-2.946289063,-3.822998047,-4.936523438,453,-466,395
1622,-2.948242188,-3.82421875,-4.938720703,465,-502,386
1627,-2.946289063,-3.824462891,-4.929443359,457,-463,371
1632,-2.948974609,-3.818603516,-4.937744141,465,-485,390
1637,-2.949707031,-3.828613281,-4.939208984,469,-469,387
1642,-2.947509766,-3.824707031,-4.934082031,450,-490,377
1647,-2.945800781,-3.824951172,-4.936767578,467,-479,368
1652,-2.947509766,-3.829833984,-4.940917969,453,-483,351
1657,-2.947021484,-3.825195313,-4.936767578,474,-480,370
1662,-2.945556641,-3.820556641,-4.934814453,471,-487,392
1667,-2.944580078,-3.822509766,-4.937011719,450,-485,369
1672,-2.947509766,-3.831054688,-4.928222656,472,-494,360
1677,-2.951416016,-3.822998047,-4.936035156,444,-481,376
1682,-2.948486328,-3.825683594,-4.940673828,464,-481,374
1687,-2.951904297,-3.823242188,-4.938232422,465,-492,370
1692,-2.945556641,-3.825927734,-4.934326172,444,-496,376
1697,-2.947998047,-3.828369141,-4.934082031,472,-475,410
1702,-2.945068359,-3.822753906,-4.930908203,458,-489,376
1707,-2.950439453,-3.824951172,-4.93359375,450,-493,386
1712,-2.946044922,-3.827392578,-4.930664063,453,-469,360
1717,-2.950439453,-3.821777344,-4.942138672,474,-481,398
1722,-2.948730469,-3.824951172,-4.933349609,458,-484,363
1727,-2.946777344,-3.827392578,-4.933105469,470,-474,395
1732,-2.947998047,-3.822021484,-4.938232422,452,-478,372
1738,-2.950439453,-3.826416016,-4.931152344,456,-485,371
1743,-2.946289063,-3.825439453,-4.933105469,443,-475,376
1748,-2.947753906,-3.825439453,-4.931396484,445,-479,387
1753,-2.947021484,-3.827148438,-4.932617188,452,-487,378
1758,-2.947265625,-3.822021484,-4.929931641,465,-489,391
1763,-2.948486328,-3.821777344,-4.929931641,454,-502,386
1768,-2.946533203,-3.829589844,-4.937011719,472,-484,400
1773,-2.947021484,-3.826904297,-4.927490234,445,-481,362
1778,-2.948974609,-3.819335938,-4.936523438,447,-488,383
1783,-2.94921875,-3.825927734,-4.939208984,452,-487,375
1788,-2.947265625,-3.826171875,-4.933349609,452,-482,351
1793,-2.947509766,-3.822265625,-4.935546875,461,-489,382
1798,-2.948242188,-3.824707031,-4.94140625,474,-491,381
1803,-2.945800781,-3.825683594,-4.935546875,458,-473,375
1808,-2.948730469,-3.823730469,-4.932617188,448,-491,369
1813,-2.946289063,-3.825195313,-4.934814453,459,-472,375
1818,-2.948242188,-3.826660156,-4.934082031,443,-482,381
1823,-2.950195313,-3.826171875,-4.932128906,468,-477,359
1828,-2.949951172,-3.828369141,-4.937988281,458,-483,376
1833,-2.944335938,-3.827148438,-4.933349609,471,-495,371
1838,-2.946044922,-3.822753906,-4.934814453,466,-479,355
1843,-2.948730469,-3.824707031,-4.931640625,435,-483,382
1848,-2.944580078,-3.828369141,-4.931396484,440,-479,367
1853,-2.947509766,-3.822753906,-4.935058594,455,-482,362
1858,-2.947998047,-3.827636719,-4.937255859,463,-478,372
1863,-2.948242188,-3.823730469,-4.932861328,467,-476,378
1868,-2.945556641,-3.823486328,-4.936523438,463,-495,400
1874,-2.945800781,-3.824707031,-4.924560547,458,-479,407
1879,-2.948486328,-3.826171875,-4.931640625,460,-477,386
1884,-2.947509766,-3.825195313,-4.932617188,469,-490,377
1889,-2.948974609,-3.828125,-4.932861328,458,-493,372
1894,-2.944335938,-3.823974609,-4.936767578,431,-465,368
1899,-2.9453125,-3.827392578,-4.935791016,459,-477,378
1904,-2.947998047,-3.826660156,-4.9375,437,-494,383
1909,-2.950683594,-3.823242188,-4.937011719,446,-475,405
1914,-2.949707031,-3.824951172,-4.934814453,434,-484,369
1919,-2.947265625,-3.823974609,-4.938720703,465,-489,366
1924,-2.949707031,-3.822753906,-4.934326172,460,-495,358
1929,-2.949462891,-3.827148438,-4.940185547,467,-474,384
1934,-2.947753906,-3.826416016,-4.929199219,462,-486,357
1939,-2.947753906,-3.822753906,-4.937255859,448,-487,365
1944,-2.950683594,-3.825439453,-4.930419922,435,-491,374
1949,-2.949707031,-3.826904297,-4.929443359,454,-490,373
1954,-2.944335938,-3.822998047,-4.928955078,469,-490,380
1959,-2.946533203,-3.823974609,-4.935302734,471,-463,393
1964,-2.944335938,-3.821777344,-4.933105469,434,-503,369
1969,-2.947998047,-3.825683594,-4.931640625,445,-498,374
1974,-2.949951172,-3.822021484,-4.933349609,437,-470,411
1979,-2.946533203,-3.824951172,-4.930419922,444,-464,373
1984,-2.950927734,-3.825683594,-4.933349609,469,-462,368
1989,-2.950439453,-3.827636719,-4.935058594,463,-489,398
1994,-2.946289063,-3.828369141,-4.932373047,462,-480,368
1999,-2.947509766,-3.826904297,-4.931640625,459,-503,404
2004,-2.949951172,-3.827392578,-4.936279297,491,-475,394
2010,-2.948974609,-3.824707031,-4.934570313,450,-489,379
2015,-2.946044922,-3.825927734,-4.933837891,472,-482,378
2020,-2.943847656,-3.827392578,-4.928710938,465,-478,377
2025,-2.953613281,-3.818847656,-4.93359375,454,-485,396
2030,-2.947021484,-3.826171875,-4.937011719,473,-479,380
2035,-2.947509766,-3.824707031,-4.937988281,472,-480,380
2040,-2.947753906,-3.825439453,-4.934326172,450,-485,386
2045,-2.949707031,-3.825439453,-4.932861328,456,-498,392
2050,-2.948974609,-3.829833984,-4.932128906,456,-487,372
2055,-2.943359375,-3.824707031,-4.940185547,447,-492,372
2060,-2.946044922,-3.825195313,-4.932128906,473,-495,392
2065,-2.950195313,-3.825683594,-4.935546875,466,-479,388
2070,-2.94921875,-3.825927734,-4.939697266,447,-489,381
2075,-2.950683594,-3.827636719,-4.934570313,442,-469,365
2080,-2.944580078,-3.826171875,-4.93359375,446,-478,369
2085,-2.953125,-3.825439453,-4.937744141,461,-495,367
2090,-2.946777344,-3.827148438,-4.932861328,479,-510,378
2095,-2.94921875,-3.824707031,-4.936523438,461,-476,373
2100,-2.948242188,-3.823242188,-4.936523438,475,-489,400
2105,-2.950927734,-3.822021484,-4.936523438,471,-492,381
2110,-2.950927734,-3.825439453,-4.936767578,444,-488,385
2115,-2.9453125,-3.826904297,-4.936279297,458,-491,391
2120,-2.950195313,-3.825439453,-4.935546875,465,-478,396
2125,-2.949951172,-3.827148438,-4.930908203,455,-496,379
2130,-2.945068359,-3.828613281,-4.937011719,466,-480,409
2135,-2.947265625,-3.825195313,-4.936767578,470,-497,391
2140,-2.948974609,-3.822021484,-4.932373047,457,-455,389
2146,-2.948242188,-3.825439453,-4.936767578,467,-472,400
2151,-2.950195313,-3.822998047,-4.931396484,461,-488,335
2156,-2.946533203,-3.825195313,-4.927734375,451,-489,386
2161,-2.9453125,-3.826660156,-4.940917969,469,-470,380
2166,-2.948730469,-3.826660156,-4.932617188,452,-487,362
2171,-2.946777344,-3.824707031,-4.936035156,448,-482,392
2176,-2.950683594,-3.824707031,-4.936523438,448,-485,403
2181,-2.946533203,-3.826416016,-4.932373047,463,-465,372
2186,-2.9453125,-3.831298828,-4.939941406,438,-467,370
2191,-2.948486328,-3.825439453,-4.936767578,463,-477,378
2196,-2.947021484,-3.824462891,-4.937255859,475,-503,360
2201,-2.945800781,-3.822998047,-4.940185547,456,-471,369
2206,-2.950683594,-3.827636719,-4.933105469,450,-466,364
2211,-2.944580078,-3.824462891,-4.928955078,458,-489,383
2216,-2.949462891,-3.823486328,-4.931396484,443,-475,374
2221,-2.947509766,-3.827148438,-4.93359375,457,-478,379
2226,-2.944824219,-3.823486328,-4.925537109,477,-513,366
2231,-2.946289063,-3.824951172,-4.927001953,456,-486,361
2236,-2.946777344,-3.825683594,-4.932617188,462,-474,364
2241,-2.951904297,-3.825439453,-4.929199219,456,-466,383
2246,-2.947265625,-3.828125,-4.937744141,455,-490,384
2251,-2.948242188,-3.823730469,-4.9375,452,-470,355
2256,-2.945556641,-3.823242188,-4.927734375,480,-481,370
2261,-2.943115234,-3.827880859,-4.941650391,465,-484,375
2266,-2.945556641,-3.824951172,-4.940673828,445,-465,364
2271,-2.947265625,-3.821777344,-4.938720703,461,-486,368
2276,-2.94921875,-3.821533203,-4.935302734,458,-491,376
2282,-2.946044922,-3.826171875,-4.935791016,460,-484,371
2287,-2.947265625,-3.820800781,-4.933105469,440,-483,365
2292,-2.949707031,-3.828125,-4.932617188,455,-481,377
2297,-2.945556641,-3.826171875,-4.931884766,448,-485,372
2302,-2.947509766,-3.825195313,-4.931152344,462,-486,370
2307,-2.951171875,-3.826171875,-4.936523438,463,-487,356
2312,-2.947753906,-3.827148438,-4.929931641,455,-482,379
2317,-2.954833984,-3.825927734,-4.934082031,442,-492,357
2322,-2.949951172,-3.826660156,-4.938720703,434,-506,389
2327,-2.947509766,-3.827392578,-4.935791016,458,-504,391
2332,-2.948730469,-3.825927734,-4.930908203,461,-457,388
2337,-2.950683594,-3.823974609,-4.932617188,468,-484,354
2342,-2.949462891,-3.823242188,-4.933349609,447,-482,381
2347,-2.944091797,-3.828125,-4.935546875,455,-490,387
2352,-2.949951172,-3.823486328,-4.927490234,461,-501,362
2357,-2.950927734,-3.826171875,-4.930908203,474,-498,371
2362,-2.950439453,-3.826416016,-4.930419922,457,-486,368
2367,-2.947753906,-3.82421875,-4.933349609,470,-480,372
2372,-2.949707031,-3.825683594,-4.928222656,451,-485,328
2377,-2.947509766,-3.825927734,-4.935546875,459,-481,362
2382,-2.949707031,-3.825195313,-4.931396484,439,-489,371
2387,-2.946289063,-3.826171875,-4.936767578,455,-520,369
2392,-2.948242188,-3.823730469,-4.937744141,466,-499,386
2397,-2.946289063,-3.825927734,-4.926269531,458,-477,397
2402,-2.950439453,-3.82421875,-4.932373047,459,-488,390
2407,-2.947509766,-3.828613281,-4.94140625,452,-471,387
2412,-2.953125,-3.828857422,-4.934082031,439,-467,373
2418,-2.950195313,-3.827636719,-4.929931641,443,-461,368
2423,-2.948730469,-3.827148438,-4.936523438,453,-493,390
2428,-2.950439453,-3.828369141,-4.937011719,464,-472,386
2433,-2.946044922,-3.827148438,-4.930664063,456,-480,384
2438,-2.950683594,-3.822998047,-4.939697266,487,-499,389
2443,-2.947509766,-3.824462891,-4.928955078,458,-470,380
2448,-2.947509766,-3.822265625,-4.932373047,437,-491,388
2453,-2.947021484,-3.827148438,-4.931152344,455,-471,403
2458,-2.951416016,-3.825195313,-4.938232422,458,-492,384
2463,-2.949707031,-3.826171875,-4.937255859,471,-488,381
2468,-2.94921875,-3.82421875,-4.931152344,459,-486,383
2473,-2.948730469,-3.829589844,-4.933837891,436,-509,404
2478,-2.94921875,-3.826416016,-4.936035156,441,-493,377
2483,-2.947021484,-3.827636719,-4.932617188,458,-474,366
2488,-2.949462891,-3.821777344,-4.9375,457,-476,368
2493,-2.949462891,-3.824462891,-4.93359375,444,-493,373
2498,-2.944824219,-3.821777344,-4.930908203,445,-476,360
2503,-2.949951172,-3.823730469,-4.935058594,450,-496,382
2508,-2.947021484,-3.825683594,-4.936767578,450,-483,391
2513,-2.947265625,-3.825195313,-4.934326172,453,-511,409
2518,-2.944335938,-3.825683594,-4.928222656,457,-477,378
2523,-2.94921875,-3.828857422,-4.938720703,450,-504,360
2528,-2.946044922,-3.826171875,-4.935546875,469,-470,375
2533,-2.947753906,-3.827392578,-4.936035156,454,-480,376
2538,-2.952392578,-3.823730469,-4.930908203,472,-483,366
2543,-2.943847656,-3.823730469,-4.934082031,456,-483,377
2548,-2.948730469,-3.823486328,-4.927734375,443,-471,378
2554,-2.946533203,-3.826416016,-4.9375,448,-462,371
2559,-2.947753906,-3.823974609,-4.939697266,454,-489,384
2564,-2.943847656,-3.827148438,-4.932861328,465,-474,393
2569,-2.94921875,-3.827392578,-4.93359375,476,-466,377
2574,-2.947265625,-3.821533203,-4.933105469,477,-483,393
2579,-2.950683594,-3.828369141,-4.937988281,469,-479,395
2584,-2.950195313,-3.828857422,-4.930908203,455,-507,393
2589,-2.947998047,-3.821533203,-4.937744141,452,-496,358
2594,-2.948486328,-3.827392578,-4.934326172,456,-472,382
2599,-2.948730469,-3.826171875,-4.936035156,440,-484,366
2604,-2.952880859,-3.823486328,-4.931152344,490,-488,387
2609,-2.950683594,-3.828857422,-4.937744141,457,-474,385
2614,-2.944824219,-3.824462891,-4.931152344,455,-503,377
2619,-2.952392578,-3.827148438,-4.934326172,450,-503,373
2624,-2.943603516,-3.823486328,-4.935546875,450,-473,362
2629,-2.948242188,-3.824951172,-4.935546875,467,-480,376
2634,-2.947998047,-3.821044922,-4.931396484,470,-488,365
2639,-2.942871094,-3.824951172,-4.936523438,461,-488,377
2644,-2.947753906,-3.822265625,-4.937744141,463,-499,364
2649,-2.947265625,-3.824707031,-4.936523438,440,-492,393
2654,-2.947265625,-3.829833984,-4.934814453,442,-501,376
2659,-2.947753906,-3.827636719,-4.937255859,459,-501,390
2664,-2.946289063,-3.829101563,-4.932617188,462,-449,393
2669,-2.948242188,-3.825683594,-4.934570313,474,-480,371
2674,-2.946777344,-3.822021484,-4.929931641,461,-463,378
2679,-2.947265625,-3.820800781,-4.923828125,456,-489,397
2684,-2.950927734,-3.827148438,-4.936279297,460,-504,390
2690,-2.951171875,-3.825927734,-4.935791016,468,-482,358
2695,-2.947509766,-3.825439453,-4.935058594,477,-475,388
2700,-2.951660156,-3.824707031,-4.938232422,441,-481,398
2705,-2.947753906,-3.82421875,-4.930908203,471,-486,381
2710,-2.949707031,-3.826171875,-4.939697266,435,-481,378
2715,-2.948730469,-3.822509766,-4.935791016,442,-495,374
2720,-2.945556641,-3.828125,-4.931884766,440,-477,377
2725,-2.944824219,-3.825927734,-4.935791016,460,-481,373
2730,-2.947753906,-3.828369141,-4.935058594,468,-496,353
2735,-2.947753906,-3.823974609,-4.935302734,463,-499,359
2740,-2.946533203,-3.824707031,-4.935791016,483,-496,381
2745,-2.946533203,-3.825439453,-4.931640625,455,-486,379
2750,-2.949462891,-3.823242188,-4.9375,443,-500,394
2755,-2.947998047,-3.825927734,-4.936523438,443,-487,376
2760,-2.946044922,-3.825683594,-4.938720703,469,-494,370
2765,-2.9453125,-3.822021484,-4.938476563,451,-487,390
2770,-2.948242188,-3.827880859,-4.9453125,459,-501,371
2775,-2.946777344,-3.824951172,-4.940185547,471,-495,388
2780,-2.951660156,-3.826171875,-4.928710938,462,-493,388
2785,-2.947753906,-3.825683594,-4.931640625,453,-469,350
2790,-2.946044922,-3.825195313,-4.937255859,457,-479,385
2795,-2.944580078,-3.828613281,-4.930175781,452,-495,387
2800,-2.948974609,-3.821289063,-4.938720703,473,-496,381
2805,-2.946533203,-3.830566406,-4.939697266,459,-482,351
2810,-2.946044922,-3.821289063,-4.931396484,463,-488,398
2815,-2.946533203,-3.825439453,-4.933837891,443,-497,384
2820,-2.947265625,-3.823974609,-4.940917969,452,-499,372
2826,-2.9453125,-3.822509766,-4.939208984,464,-484,397
2831,-2.947998047,-3.826416016,-4.935058594,447,-490,363
2836,-2.947509766,-3.823974609,-4.930175781,463,-506,370
2841,-2.950439453,-3.824707031,-4.940917969,459,-464,353
2846,-2.947021484,-3.82421875,-4.930664063,456,-506,386
2851,-2.949707031,-3.823974609,-4.938476563,444,-496,379
2856,-2.945556641,-3.825927734,-4.928955078,455,-470,394
2861,-2.947265625,-3.821777344,-4.935791016,451,-496,379
2866,-2.949707031,-3.826171875,-4.934326172,465,-490,369
2871,-2.947021484,-3.822509766,-4.938476563,451,-511,376
2876,-2.948242188,-3.823974609,-4.935791016,459,-487,377
2881,-2.947509766,-3.830078125,-4.931396484,454,-470,381
2886,-2.947021484,-3.827148438,-4.930419922,426,-479,374
2891,-2.946289063,-3.828125,-4.927246094,468,-483,367
2896,-2.949707031,-3.823486328,-4.936035156,449,-500,360
2901,-2.947998047,-3.822998047,-4.931152344,445,-478,369
2906,-2.948974609,-3.823242188,-4.929931641,477,-481,383
2911,-2.948242188,-3.823242188,-4.930908203,446,-506,374
2916,-2.952392578,-3.823242188,-4.930175781,450,-473,384
2921,-2.944824219,-3.823242188,-4.935791016,447,-473,390
2926,-2.945556641,-3.822021484,-4.936523438,471,-472,383
2931,-2.945068359,-3.826416016,-4.93359375,446,-491,375
2936,-2.9453125,-3.827636719,-4.935791016,463,-473,378
2941,-2.947998047,-3.821289063,-4.939453125,465,-486,374
2946,-2.948730469,-3.82421875,-4.939453125,450,-488,382
2951,-2.946533203,-3.825683594,-4.936767578,445,-464,362
2956,-2.943115234,-3.826171875,-4.930175781,461,-465,357
2962,-2.950195313,-3.826171875,-4.928466797,461,-457,385
2967,-2.948730469,-3.825439453,-4.937011719,444,-498,368
2972,-2.947998047,-3.823242188,-4.929199219,443,-465,378
2977,-2.947021484,-3.823486328,-4.931396484,466,-494,382
2982,-2.948730469,-3.822021484,-4.930419922,452,-499,358
2987,-2.950927734,-3.828369141,-4.93359375,458,-484,378
2992,-2.948974609,-3.825927734,-4.938964844,462,-482,378
2997,-2.950439453,-3.824707031,-4.939941406,440,-495,369
3002,-2.947753906,-3.824462891,-4.930419922,469,-477,369
3007,-2.943603516,-3.824707031,-4.936035156,428,-469,367
3012,-2.946777344,-3.822998047,-4.939941406,459,-469,372
3017,-2.947998047,-3.823730469,-4.937988281,462,-472,360
3022,-2.944335938,-3.825195313,-4.932861328,464,-489,388
3027,-2.954345703,-3.827392578,-4.934326172,473,-469,375
3032,-2.950195313,-3.826904297,-4.934814453,448,-483,372
3037,-2.94921875,-3.826416016,-4.937011719,473,-510,364
3042,-2.949707031,-3.827392578,-4.935546875,466,-489,404
3047,-2.948486328,-3.825439453,-4.924560547,451,-459,383
3052,-2.946289063,-3.820556641,-4.928466797,455,-481,376
3057,-2.948974609,-3.829833984,-4.936035156,468,-483,390
3062,-2.950439453,-3.826416016,-4.922851563,466,-488,385
3067,-2.947753906,-3.826660156,-4.931640625,463,-485,379
3072,-2.949951172,-3.824462891,-4.937011719,451,-495,366
3077,-2.948242188,-3.826171875,-4.9375,467,-478,394
3082,-2.951416016,-3.818603516,-4.938720703,438,-510,383
3087,-2.948730469,-3.822509766,-4.9375,449,-487,374
3092,-2.950439453,-3.824707031,-4.929199219,464,-491,398
3098,-2.950195313,-3.823974609,-4.934814453,467,-497,385
3103,-2.945068359,-3.826416016,-4.93359375,455,-492,372
3108,-2.943847656,-3.823974609,-4.928222656,460,-515,366
3113,-2.947998047,-3.819091797,-4.933837891,438,-486,361
3118,-2.94921875,-3.826416016,-4.939941406,448,-479,385
3123,-2.947265625,-3.822998047,-4.938720703,457,-484,396
3128,-2.948242188,-3.82421875,-4.934570313,459,-470,415
3133,-2.951660156,-3.828369141,-4.932861328,467,-489,388
3138,-2.94921875,-3.82421875,-4.935546875,464,-471,387
3143,-2.947265625,-3.821777344,-4.934082031,474,-481,388
3148,-2.948974609,-3.825195313,-4.935546875,465,-486,371
3153,-2.944335938,-3.824951172,-4.931884766,456,-501,387
3158,-2.947509766,-3.824707031,-4.931152344,480,-479,382
3163,-2.947753906,-3.826416016,-4.934082031,467,-489,373
3168,-2.947753906,-3.826660156,-4.936767578,467,-492,374
3173,-2.948242188,-3.825439453,-4.928710938,451,-480,387
3178,-2.949462891,-3.818359375,-4.935302734,469,-495,367
3183,-2.947509766,-3.821777344,-4.938476563,461,-482,375
3188,-2.951416016,-3.822998047,-4.935546875,431,-492,408
3193,-2.9453125,-3.826904297,-4.932373047,455,-499,386
3198,-2.950195313,-3.822265625,-4.933349609,467,-466,357
3203,-2.94921875,-3.829589844,-4.931396484,472,-461,374
3208,-2.946777344,-3.822753906,-4.9375,460,-509,362
3213,-2.946289063,-3.822998047,-4.929199219,468,-471,383
3218,-2.946533203,-3.821777344,-4.939941406,449,-490,383
3223,-2.948730469,-3.822021484,-4.936767578,463,-464,359
3228,-2.953369141,-3.825439453,-4.932861328,459,-490,399
3234,-2.944824219,-3.827148438,-4.934082031,448,-490,384
3239,-2.949951172,-3.826416016,-4.934814453,433,-496,369
3244,-2.947998047,-3.824462891,-4.933837891,449,-470,374
3249,-2.94921875,-3.823486328,-4.937255859,460,-497,381
3254,-2.947509766,-3.821533203,-4.933837891,464,-483,380
3259,-2.948486328,-3.828613281,-4.930175781,462,-471,374
3264,-2.950683594,-3.829589844,-4.936767578,459,-470,384
3269,-2.944335938,-3.825927734,-4.931396484,440,-476,380
3274,-2.947509766,-3.825195313,-4.933349609,460,-489,380
3279,-2.948974609,-3.821533203,-4.930419922,456,-481,381
3284,-2.950439453,-3.823974609,-4.932128906,457,-475,364
3289,-2.945556641,-3.821777344,-4.931152344,461,-482,384
3294,-2.947265625,-3.821533203,-4.934814453,454,-501,368
3299,-2.948730469,-3.824462891,-4.934570313,459,-472,381
3304,-2.948974609,-3.824707031,-4.935546875,451,-504,371
3309,-2.948974609,-3.831054688,-4.937744141,474,-498,371
3314,-2.950195313,-3.824951172,-4.932861328,444,-479,390
3319,-2.946533203,-3.827392578,-4.935546875,450,-487,391
3324,-2.947265625,-3.827880859,-4.940185547,457,-501,388
3329,-2.9453125,-3.825439453,-4.94140625,460,-495,365
3334,-2.946777344,-3.826904297,-4.940673828,477,-488,382
3339,-2.944580078,-3.823974609,-4.934570313,451,-465,369
3344,-2.948242188,-3.8203125,-4.932373047,467,-511,365
3349,-2.948486328,-3.823486328,-4.936035156,460,-483,381
3354,-2.947998047,-3.826660156,-4.940917969,448,-487,343
3359,-2.947998047,-3.83203125,-4.940185547,446,-503,381
3364,-2.941894531,-3.827880859,-4.935058594,468,-483,386
3370,-2.945800781,-3.829589844,-4.934326172,464,-480,378
3375,-2.948974609,-3.825927734,-4.933837891,466,-477,372
3380,-2.947753906,-3.823974609,-4.937255859,461,-507,385
3385,-2.948730469,-3.823730469,-4.935546875,441,-484,378
3390,-2.943847656,-3.826416016,-4.936523438,454,-511,374
3395,-2.948730469,-3.825927734,-4.93359375,449,-486,354
3400,-2.950683594,-3.829101563,-4.933105469,468,-473,369
3405,-2.948730469,-3.827392578,-4.941162109,478,-480,357
3410,-2.949707031,-3.823486328,-4.936279297,465,-483,396
3415,-2.948242188,-3.827148438,-4.933837891,471,-470,383
3420,-2.943847656,-3.821533203,-4.936523438,479,-476,376
3425,-2.945068359,-3.823730469,-4.934814453,445,-486,391
3430,-2.946777344,-3.825927734,-4.932861328,467,-465,383
3435,-2.945556641,-3.825439453,-4.930175781,451,-482,366
3440,-2.941894531,-3.823974609,-4.935791016,450,-468,366
3445,-2.948486328,-3.823486328,-4.935791016,468,-492,371
3450,-2.950927734,-3.828125,-4.93359375,460,-467,366
3455,-2.946533203,-3.823242188,-4.934570313,455,-477,368
3460,-2.949462891,-3.827148438,-4.929443359,448,-475,386
3465,-2.948730469,-3.830322266,-4.927001953,446,-506,376
3470,-2.944091797,-3.825683594,-4.933837891,454,-474,393
3475,-2.946777344,-3.827148438,-4.938476563,467,-488,367
3480,-2.950683594,-3.822998047,-4.931884766,479,-465,370
3485,-2.948730469,-3.826416016,-4.939941406,463,-507,384
3490,-2.945068359,-3.825927734,-4.934570313,462,-494,373
3495,-2.950439453,-3.824707031,-4.9375,466,-472,361
3500,-2.946533203,-3.826660156,-4.940917969,481,-483,392
3506,-2.950195313,-3.825195313,-4.937011719,478,-494,393
3511,-2.947998047,-3.823486328,-4.935302734,476,-474,381
3516,-2.947265625,-3.825927734,-4.935546875,459,-483,372
3521,-2.948242188,-3.827392578,-4.935791016,442,-497,390
3526,-2.947753906,-3.826171875,-4.927001953,453,-500,390
3531,-2.948486328,-3.822021484,-4.936523438,481,-497,387
3536,-2.948730469,-3.826171875,-4.933837891,463,-468,377
3541,-2.947998047,-3.824951172,-4.935302734,467,-474,374
3546,-2.952148438,-3.8203125,-4.932373047,441,-497,379
3551,-2.952148438,-3.827636719,-4.933349609,467,-504,384
3556,-2.943115234,-3.822509766,-4.935302734,439,-497,381
3561,-2.948730469,-3.821289063,-4.937988281,436,-464,398
3566,-2.950439453,-3.829101563,-4.93359375,455,-502,378
3571,-2.945800781,-3.825439453,-4.930419922,476,-499,348
3576,-2.947509766,-3.822265625,-4.931884766,468,-492,361
3581,-2.950439453,-3.822753906,-4.933837891,463,-508,381
3586,-2.944091797,-3.827880859,-4.935791016,446,-485,371
3591,-2.950927734,-3.825927734,-4.931884766,426,-503,383
3596,-2.953613281,-3.826660156,-4.940185547,442,-483,399
3601,-2.945800781,-3.826416016,-4.935791016,448,-481,383
3606,-2.948242188,-3.825439453,-4.938232422,469,-486,379
3611,-2.949462891,-3.825195313,-4.937011719,461,-447,388
3616,-2.944580078,-3.822265625,-4.935058594,454,-476,413
3621,-2.9453125,-3.826660156,-4.933105469,461,-483,390
3626,-2.94921875,-3.827148438,-4.939208984,451,-470,387
3631,-2.950927734,-3.827636719,-4.933837891,446,-477,368
3636,-2.947753906,-3.823974609,-4.925537109,455,-493,366
3642,-2.948974609,-3.824462891,-4.937988281,461,-488,388
3647,-2.948974609,-3.822753906,-4.935791016,453,-511,385
3652,-2.951171875,-3.825195313,-4.937744141,463,-465,374
3657,-2.946044922,-3.822998047,-4.928710938,453,-467,377
3662,-2.947753906,-3.823730469,-4.927978516,428,-497,360
3667,-2.944824219,-3.828857422,-4.936279297,442,-502,385
3672,-2.945556641,-3.824951172,-4.938232422,478,-494,354
3677,-2.949707031,-3.823486328,-4.936279297,467,-481,371
3682,-2.948974609,-3.827636719,-4.937744141,465,-473,362
3687,-2.943847656,-3.823242188,-4.935791016,465,-478,392
3692,-2.946533203,-3.825927734,-4.935302734,440,-474,384
3697,-2.947998047,-3.825439453,-4.934082031,471,-477,365
3702,-2.948730469,-3.827880859,-4.930908203,457,-474,374
3707,-2.946044922,-3.824707031,-4.929199219,485,-502,392
3712,-2.950195313,-3.8203125,-4.934082031,466,-509,360
3717,-2.947998047,-3.825195313,-4.928466797,457,-487,374
3722,-2.947509766,-3.825195313,-4.938476563,443,-487,375
3727,-2.950195313,-3.826171875,-4.932128906,452,-485,386
3732,-2.949707031,-3.826416016,-4.93359375,469,-471,363
3737,-2.947753906,-3.826660156,-4.938964844,469,-464,387
3742,-2.947509766,-3.824707031,-4.934570313,449,-479,372
3747,-2.950195313,-3.826171875,-4.933105469,448,-457,390
3752,-2.945556641,-3.824462891,-4.933349609,485,-464,372
3757,-2.947998047,-3.830810547,-4.935546875,456,-489,404
3762,-2.948974609,-3.825683594,-4.932373047,449,-467,370
3767,-2.947998047,-3.827392578,-4.936279297,449,-488,367
3772,-2.951660156,-3.824707031,-4.931152344,474,-486,383
3778,-2.952392578,-3.822998047,-4.932617188,471,-506,416
3783,-2.944824219,-3.825683594,-4.935058594,460,-470,374
3788,-2.950439453,-3.822021484,-4.934082031,461,-488,370
3793,-2.948486328,-3.827392578,-4.932128906,445,-487,370
3798,-2.948974609,-3.821777344,-4.937011719,452,-492,386
3803,-2.946533203,-3.828857422,-4.936035156,458,-491,376
3808,-2.947753906,-3.824951172,-4.937255859,474,-492,384
3813,-2.94921875,-3.823486328,-4.939697266,449,-485,384
3818,-2.948974609,-3.825195313,-4.93359375,483,-476,383
3823,-2.945068359,-3.820800781,-4.930908203,476,-472,375
3828,-2.947021484,-3.8203125,-4.932861328,455,-503,390
3833,-2.949951172,-3.821777344,-4.932128906,447,-482,370
3838,-2.945800781,-3.827636719,-4.933837891,456,-472,392
3843,-2.945556641,-3.825683594,-4.9296875,463,-490,379
3848,-2.950195313,-3.822998047,-4.928955078,492,-482,382
3853,-2.946777344,-3.829101563,-4.934814453,470,-481,378
3858,-2.949462891,-3.823486328,-4.931396484,441,-488,378
3863,-2.948974609,-3.823730469,-4.936767578,455,-494,389
3868,-2.947753906,-3.831298828,-4.934082031,446,-487,392
3873,-2.944091797,-3.827880859,-4.938232422,483,-485,371
3878,-2.946044922,-3.821289063,-4.937011719,461,-500,384
3883,-2.947998047,-3.826660156,-4.930419922,455,-458,386
3888,-2.947265625,-3.821777344,-4.931640625,462,-491,375
3893,-2.945800781,-3.828125,-4.938476563,441,-488,386
3898,-2.947265625,-3.823242188,-4.9453125,445,-488,393
3903,-2.945556641,-3.823730469,-4.939697266,455,-474,384
3908,-2.947753906,-3.823730469,-4.942382813,465,-480,376
3913,-2.941894531,-3.824462891,-4.931884766,452,-494,394
3919,-2.946044922,-3.82421875,-4.936035156,462,-484,388
3924,-2.946533203,-3.826660156,-4.932373047,435,-457,375
3929,-2.949707031,-3.824462891,-4.936767578,444,-471,371
3934,-2.948242188,-3.826171875,-4.934326172,473,-472,377
3939,-2.946777344,-3.829101563,-4.941650391,463,-508,369
3944,-2.948730469,-3.826171875,-4.935302734,448,-485,388
3949,-2.948242188,-3.820800781,-4.930664063,438,-481,362
3954,-2.949951172,-3.825439453,-4.926025391,471,-515,358
3959,-2.946044922,-3.821777344,-4.926025391,480,-489,379
3964,-2.946044922,-3.825927734,-4.936767578,442,-481,346
3969,-2.949462891,-3.823730469,-4.929443359,459,-484,382
3974,-2.948974609,-3.826904297,-4.936035156,464,-481,378
3979,-2.952392578,-3.822021484,-4.936035156,450,-478,372
3984,-2.945800781,-3.827148438,-4.938476563,464,-499,382
3989,-2.947753906,-3.822998047,-4.934570313,467,-490,389
3994,-2.945556641,-3.823730469,-4.934814453,471,-497,371
3999,-2.947998047,-3.826416016,-4.933837891,459,-486,391
4004,-2.945556641,-3.825683594,-4.9375,466,-482,369
4009,-2.947753906,-3.820068359,-4.934082031,462,-473,400
4014,-2.946533203,-3.825439453,-4.935302734,455,-481,364
4019,-2.947021484,-3.826416016,-4.934570313,468,-484,359
4024,-2.947753906,-3.823974609,-4.938476563,457,-488,391
4029,-2.951660156,-3.825927734,-4.927001953,432,-513,403
4034,-2.948486328,-3.827148438,-4.938964844,462,-510,373
4039,-2.948730469,-3.826416016,-4.940185547,485,-473,368
4044,-2.947998047,-3.822753906,-4.933837891,467,-507,371
4049,-2.947509766,-3.823486328,-4.936279297,461,-460,387
4055,-2.945556641,-3.827148438,-4.933837891,464,-484,378
4060,-2.947021484,-3.82421875,-4.925292969,454,-479,368
4065,-2.945800781,-3.822265625,-4.927490234,453,-496,383
4070,-2.949707031,-3.827636719,-4.934814453,448,-495,388
4075,-2.946533203,-3.825683594,-4.939453125,448,-483,369
4080,-2.946044922,-3.827392578,-4.934814453,465,-476,365
4085,-2.948974609,-3.822509766,-4.937744141,473,-468,378
4090,-2.945800781,-3.825195313,-4.934814453,470,-470,391
4095,-2.94921875,-3.825195313,-4.930908203,468,-483,378
4100,-2.946533203,-3.827148438,-4.935546875,445,-483,385
4105,-2.945556641,-3.828125,-4.934570313,442,-499,378
4110,-2.950683594,-3.823242188,-4.933105469,450,-502,357
4115,-2.948242188,-3.826660156,-4.9375,460,-487,385
4120,-2.947998047,-3.822998047,-4.935546875,446,-474,382
4125,-2.947265625,-3.822753906,-4.941650391,445,-489,357
4130,-2.945800781,-3.825195313,-4.936279297,455,-481,368
4135,-2.948486328,-3.828369141,-4.936035156,443,-474,378
4140,-2.949951172,-3.830810547,-4.938720703,435,-488,389
4145,-2.948242188,-3.828613281,-4.931152344,469,-471,366
4150,-2.947509766,-3.824951172,-4.934082031,462,-464,387
4155,-2.947998047,-3.821289063,-4.929931641,461,-496,380
4160,-2.951904297,-3.828857422,-4.934570313,443,-501,387
4165,-2.950195313,-3.824951172,-4.933105469,464,-452,367
4170,-2.942626953,-3.825927734,-4.937255859,446,-486,378
4175,-2.946533203,-3.82421875,-4.925537109,471,-467,351
4180,-2.949951172,-3.822998047,-4.937744141,469,-487,390
4185,-2.943359375,-3.824707031,-4.934082031,449,-480,375
4191,-2.945800781,-3.827636719,-4.931152344,448,-476,372
4196,-2.947998047,-3.825927734,-4.936035156,454,-496,389
4201,-2.944091797,-3.827392578,-4.936523438,436,-495,367
4206,-2.947998047,-3.827636719,-4.934082031,455,-463,364
4211,-2.950195313,-3.827148438,-4.93359375,452,-470,395
4216,-2.94921875,-3.830322266,-4.933349609,461,-491,381
4221,-2.948242188,-3.825439453,-4.933105469,468,-503,389
4226,-2.949462891,-3.822998047,-4.928222656,442,-477,371
4231,-2.949462891,-3.831542969,-4.928710938,444,-466,384
4236,-2.950683594,-3.825439453,-4.929443359,447,-469,362
4241,-2.948486328,-3.823242188,-4.931396484,465,-498,371
4246,-2.952148438,-3.823730469,-4.934814453,461,-465,373
4251,-2.945800781,-3.820556641,-4.931884766,471,-475,390
4256,-2.94921875,-3.825927734,-4.937744141,442,-486,371
4261,-2.946289063,-3.830322266,-4.931396484,450,-472,359
4266,-2.94921875,-3.827636719,-4.931152344,436,-478,379
4271,-2.9453125,-3.829833984,-4.927490234,434,-488,370
4276,-2.950439453,-3.824951172,-4.928710938,458,-495,367
4281,-2.948974609,-3.827880859,-4.938232422,448,-487,404
4286,-2.950195313,-3.824707031,-4.930419922,471,-497,371
4291,-2.949462891,-3.825683594,-4.926269531,451,-476,375
4296,-2.947509766,-3.823242188,-4.930908203,462,-484,379
4301,-2.943603516,-3.826416016,-4.935546875,469,-499,355
4306,-2.9453125,-3.824707031,-4.932617188,476,-476,397
4311,-2.94921875,-3.822265625,-4.931640625,443,-472,382
4316,-2.947265625,-3.825195313,-4.927978516,456,-473,373
4321,-2.945800781,-3.825683594,-4.932861328,446,-476,380
4327,-2.947509766,-3.822998047,-4.931396484,461,-476,384
4332,-2.944335938,-3.825927734,-4.931396484,465,-505,366
4337,-2.946289063,-3.825195313,-4.930419922,435,-499,387
4342,-2.949462891,-3.825683594,-4.935546875,453,-472,378
4347,-2.946289063,-3.82421875,-4.931884766,456,-462,361
4352,-2.946533203,-3.822753906,-4.927978516,487,-463,383
4357,-2.947021484,-3.824462891,-4.930175781,476,-504,370
4362,-2.949462891,-3.825683594,-4.934814453,445,-471,360
4367,-2.944824219,-3.827392578,-4.936035156,451,-483,386
4372,-2.948486328,-3.821533203,-4.936279297,473,-461,354
4377,-2.948242188,-3.829589844,-4.933349609,474,-491,384
4382,-2.950195313,-3.825195313,-4.936523438,468,-486,363
4387,-2.950195313,-3.824462891,-4.929443359,455,-478,365
4392,-2.949951172,-3.827392578,-4.931396484,471,-493,387
4397,-2.947998047,-3.822753906,-4.924560547,436,-480,367
4402,-2.94921875,-3.826416016,-4.933105469,456,-485,364
4407,-2.944091797,-3.825927734,-4.9375,456,-473,390
4412,-2.947265625,-3.823730469,-4.930908203,441,-490,377
4417,-2.945800781,-3.82421875,-4.937744141,466,-504,357
4422,-2.944335938,-3.822509766,-4.933105469,460,-457,385
4427,-2.944824219,-3.823730469,-4.937988281,466,-486,366
4432,-2.948486328,-3.826171875,-4.935546875,472,-486,360
4437,-2.947021484,-3.828613281,-4.926025391,449,-483,363
4442,-2.94921875,-3.825927734,-4.932128906,455,-497,379
4447,-2.947753906,-3.826660156,-4.927246094,462,-480,367
4452,-2.945800781,-3.827148438,-4.935791016,439,-477,373
4457,-2.9453125,-3.825683594,-4.932373047,458,-481,388
4463,-2.945068359,-3.825195313,-4.940673828,460,-479,405
4468,-2.950195313,-3.826904297,-4.932373047,440,-490,388
4473,-2.947265625,-3.822021484,-4.935546875,457,-517,347
4478,-2.948730469,-3.826660156,-4.938476563,478,-490,373
4483,-2.947509766,-3.823730469,-4.932373047,447,-478,360
4488,-2.947998047,-3.827148438,-4.939697266,453,-477,384
4493,-2.94921875,-3.825195313,-4.934814453,449,-483,412
4498,-2.949951172,-3.823486328,-4.935546875,452,-493,372
4503,-2.947753906,-3.826171875,-4.935058594,451,-507,362
4508,-2.949951172,-3.827880859,-4.934814453,464,-500,358
4513,-2.948242188,-3.826416016,-4.933837891,464,-476,388
4518,-2.944824219,-3.827392578,-4.934326172,459,-496,376
4523,-2.946777344,-3.827636719,-4.933349609,471,-483,393
4528,-2.947753906,-3.823486328,-4.936523438,452,-487,372
4533,-2.946044922,-3.831298828,-4.933105469,481,-485,373
4538,-2.950683594,-3.825195313,-4.936523438,453,-481,384
4543,-2.947753906,-3.825927734,-4.936279297,463,-495,393
4548,-2.9453125,-3.824462891,-4.9296875,459,-490,365
4553,-2.948730469,-3.827636719,-4.939697266,456,-500,390
4558,-2.951904297,-3.826416016,-4.928955078,451,-489,358
4563,-2.94921875,-3.825195313,-4.93359375,444,-503,383
4568,-2.948730469,-3.829101563,-4.930664063,454,-490,395
4573,-2.94921875,-3.827392578,-4.930175781,469,-472,370
4578,-2.945800781,-3.825683594,-4.93359375,495,-494,390
4583,-2.946044922,-3.826416016,-4.932617188,461,-499,384
4588,-2.946044922,-3.822509766,-4.933837891,465,-500,396
4593,-2.947265625,-3.823242188,-4.935058594,460,-471,393
4599,-2.949462891,-3.823974609,-4.936767578,450,-466,391
4604,-2.947509766,-3.829589844,-4.93359375,440,-481,381
4609,-2.947753906,-3.826904297,-4.931884766,492,-508,390
4614,-2.944824219,-3.827880859,-4.935791016,470,-488,380
4619,-2.946533203,-3.822753906,-4.939453125,459,-516,373
4624,-2.949707031,-3.822509766,-4.937255859,455,-497,368
4629,-2.946533203,-3.820556641,-4.941894531,464,-508,404
4634,-2.949462891,-3.828125,-4.937744141,458,-467,379
4639,-2.947021484,-3.823730469,-4.936767578,470,-481,385
4644,-2.947998047,-3.824462891,-4.933105469,462,-489,356
4649,-2.946289063,-3.825195313,-4.939697266,464,-495,374
4654,-2.94921875,-3.823242188,-4.937011719,457,-489,358
4659,-2.947509766,-3.821533203,-4.935546875,458,-466,380
4664,-2.950927734,-3.827392578,-4.931640625,452,-485,369
4669,-2.947021484,-3.823974609,-4.925292969,470,-475,361
4674,-2.948486328,-3.825683594,-4.9375,460,-494,368
4679,-2.946289063,-3.826416016,-4.939697266,466,-492,375
4684,-2.946777344,-3.824462891,-4.934570313,474,-473,379
4689,-2.947021484,-3.825439453,-4.935302734,446,-489,362
4694,-2.943847656,-3.825439453,-4.93359375,454,-494,383
4699,-2.946044922,-3.826171875,-4.937744141,437,-494,385
4704,-2.948242188,-3.826904297,-4.932861328,471,-475,389
4709,-2.946777344,-3.825195313,-4.932617188,458,-480,377
4714,-2.946044922,-3.824707031,-4.934082031,467,-503,378
4719,-2.947509766,-3.822998047,-4.939697266,445,-481,393
4724,-2.951171875,-3.822753906,-4.937255859,469,-522,366
4729,-2.951660156,-3.8203125,-4.931396484,458,-488,360
4735,-2.949951172,-3.825683594,-4.92578125,454,-462,388
4740,-2.947509766,-3.825683594,-4.930419922,449,-490,367
4745,-2.950927734,-3.824707031,-4.927978516,451,-505,375
4750,-2.943115234,-3.825927734,-4.936035156,468,-468,372
4755,-2.946044922,-3.828125,-4.927978516,455,-483,380
4760,-2.948974609,-3.825439453,-4.937011719,461,-492,355
4765,-2.94921875,-3.822021484,-4.935302734,472,-504,372
4770,-2.947998047,-3.825439453,-4.937255859,469,-464,374
4775,-2.949707031,-3.821777344,-4.932617188,456,-496,379
4780,-2.943847656,-3.825927734,-4.924072266,475,-496,370
4785,-2.949462891,-3.825195313,-4.934326172,482,-487,390
4790,-2.952392578,-3.822509766,-4.940429688,458,-472,396
4795,-2.949462891,-3.824951172,-4.927978516,479,-480,398
4800,-2.949951172,-3.823486328,-4.931396484,437,-487,376
4805,-2.949462891,-3.829589844,-4.929199219,459,-494,351
4810,-2.953125,-3.823730469,-4.939208984,461,-467,381
4815,-2.946289063,-3.82421875,-4.928710938,479,-497,376
4820,-2.9453125,-3.823486328,-4.935546875,472,-479,376
4825,-2.946289063,-3.822265625,-4.9296875,461,-492,366
4830,-2.944091797,-3.82421875,-4.926513672,466,-494,370
4835,-2.950927734,-3.825683594,-4.931396484,462,-507,378
4840,-2.950439453,-3.821777344,-4.934814453,452,-491,388
4845,-2.947265625,-3.826171875,-4.937011719,442,-487,385
4850,-2.946777344,-3.824951172,-4.934570313,462,-491,386
4855,-2.946533203,-3.825195313,-4.931640625,472,-507,379
4860,-2.946777344,-3.824462891,-4.931640625,453,-490,401
4865,-2.948486328,-3.827636719,-4.933349609,450,-471,373
4871,-2.948730469,-3.826416016,-4.937988281,457,-493,367
4876,-2.949462891,-3.827636719,-4.9296875,441,-479,362
4881,-2.944580078,-3.826904297,-4.935302734,457,-471,346
4886,-2.947265625,-3.826171875,-4.935546875,453,-487,348
4891,-2.950439453,-3.8203125,-4.930419922,458,-465,385
4896,-2.948974609,-3.825927734,-4.927734375,441,-473,377
4901,-2.947509766,-3.824462891,-4.93359375,461,-510,364
4906,-2.948730469,-3.826660156,-4.933837891,471,-516,372
4911,-2.949707031,-3.826171875,-4.934326172,463,-499,378
4916,-2.947509766,-3.825927734,-4.935546875,451,-488,386
4921,-2.9453125,-3.828125,-4.934814453,477,-488,391
4926,-2.948486328,-3.823730469,-4.930419922,469,-466,391
4931,-2.950439453,-3.825927734,-4.937744141,474,-496,361
4936,-2.9453125,-3.827880859,-4.930419922,489,-479,386
4941,-2.942871094,-3.828613281,-4.934570313,462,-481,370
4946,-2.950195313,-3.821777344,-4.940673828,464,-490,369
4951,-2.948730469,-3.822998047,-4.937255859,466,-498,397
4956,-2.946289063,-3.825683594,-4.927978516,448,-484,385
4961,-2.950439453,-3.820800781,-4.934082031,475,-475,370
4966,-2.950439453,-3.825683594,-4.93359375,454,-489,364
4971,-2.942138672,-3.825683594,-4.935058594,458,-452,375
4976,-2.949462891,-3.826171875,-4.939208984,453,-470,359
4981,-2.947265625,-3.827880859,-4.937011719,455,-483,358
4986,-2.947509766,-3.828369141,-4.931884766,465,-465,368
4991,-2.94921875,-3.824462891,-4.943115234,458,-492,386
4996,-2.947265625,-3.826171875,-4.937255859,463,-490,389
5001,-2.947509766,-3.825683594,-4.935546875,470,-486,357
5007,-2.946777344,-3.823486328,-4.930664063,450,-474,365
5012,-2.947021484,-3.826171875,-4.933105469,447,-471,388
5017,-2.944580078,-3.826660156,-4.932861328,469,-486,366
5022,-2.947265625,-3.826660156,-4.934082031,480,-465,388
5027,-2.945556641,-3.821777344,-4.930175781,469,-480,369
5032,-2.952148438,-3.825439453,-4.930175781,454,-479,386
5037,-2.947265625,-3.826904297,-4.934326172,455,-485,366
5042,-2.947998047,-3.827880859,-4.9296875,453,-491,361
5047,-2.948242188,-3.822753906,-4.932861328,467,-497,385
5052,-2.946289063,-3.825439453,-4.936035156,456,-464,410
5057,-2.948486328,-3.824707031,-4.934082031,429,-471,364
5062,-2.947021484,-3.823730469,-4.927734375,446,-497,395
5067,-2.947753906,-3.825683594,-4.934570313,463,-510,370
5072,-2.949707031,-3.827392578,-4.931640625,462,-475,362
5077,-2.952636719,-3.825683594,-4.936767578,454,-487,385
5082,-2.947753906,-3.828369141,-4.938964844,459,-479,380
5087,-2.947509766,-3.822753906,-4.928466797,461,-497,367
5092,-2.950195313,-3.823974609,-4.937744141,488,-497,372
5097,-2.948242188,-3.825683594,-4.941162109,454,-469,370
5102,-2.947021484,-3.826660156,-4.932617188,451,-466,364
5107,-2.947265625,-3.821533203,-4.934082031,443,-460,381
5112,-2.946533203,-3.825683594,-4.93359375,454,-481,350
5117,-2.947998047,-3.824707031,-4.936035156,460,-481,381
5122,-2.947753906,-3.826904297,-4.935058594,460,-484,379
5127,-2.948730469,-3.826904297,-4.939941406,461,-473,387
5132,-2.949462891,-3.823974609,-4.929199219,435,-500,384
5137,-2.9453125,-3.822753906,-4.938476563,460,-466,374
5143,-2.947998047,-3.826416016,-4.931884766,436,-494,376
5148,-2.951171875,-3.824462891,-4.933837891,470,-486,362
5153,-2.947265625,-3.825195313,-4.930908203,481,-464,391
5158,-2.950439453,-3.825195313,-4.935546875,453,-506,372
5163,-2.946533203,-3.8203125,-4.937988281,474,-483,358
5168,-2.947021484,-3.822998047,-4.939697266,468,-482,372
5173,-2.949951172,-3.826904297,-4.937744141,448,-482,368
5178,-2.947265625,-3.823974609,-4.934082031,472,-490,389
5183,-2.946289063,-3.824462891,-4.936035156,453,-483,370
5188,-2.953125,-3.826904297,-4.929443359,434,-486,373
5193,-2.945068359,-3.829101563,-4.934082031,462,-499,382
5198,-2.947021484,-3.822753906,-4.941162109,475,-464,399
5203,-2.946289063,-3.823974609,-4.936279297,481,-479,345
5208,-2.946044922,-3.822998047,-4.937744141,447,-484,366
5213,-2.948242188,-3.825195313,-4.939453125,453,-502,373
5218,-2.947021484,-3.827148438,-4.936279297,466,-473,355
5223,-2.947021484,-3.824951172,-4.931396484,454,-494,396
5228,-2.949707031,-3.82421875,-4.937255859,458,-489,360
5233,-2.946777344,-3.825927734,-4.936523438,463,-490,368
5238,-2.948974609,-3.827392578,-4.934570313,459,-475,399
5243,-2.950439453,-3.827880859,-4.935058594,460,-489,372
5248,-2.947021484,-3.825683594,-4.936767578,461,-490,372
5253,-2.951904297,-3.822021484,-4.932861328,465,-468,365
5258,-2.948242188,-3.820556641,-4.934082031,482,-503,408
5263,-2.948242188,-3.825683594,-4.933349609,450,-475,355
5268,-2.947509766,-3.826416016,-4.935302734,455,-467,377
5273,-2.943847656,-3.826171875,-4.939208984,461,-496,383
5279,-2.950195313,-3.828369141,-4.936523438,481,-481,376
5284,-2.9453125,-3.827880859,-4.936035156,463,-463,383
5289,-2.947021484,-3.827148438,-4.932861328,454,-491,377
5294,-2.945068359,-3.827880859,-4.933349609,455,-481,354
5299,-2.947753906,-3.824951172,-4.933349609,475,-478,371
5304,-2.944335938,-3.825683594,-4.934570313,454,-466,380
5309,-2.947265625,-3.825439453,-4.937988281,448,-512,383
5314,-2.946289063,-3.825439453,-4.931152344,461,-479,387
5319,-2.947265625,-3.827148438,-4.941650391,457,-478,372
5324,-2.947753906,-3.822753906,-4.935058594,473,-474,381
5329,-2.950195313,-3.823486328,-4.930908203,458,-477,396
5334,-2.947509766,-3.819091797,-4.936767578,457,-505,369
5339,-2.947265625,-3.822998047,-4.928222656,451,-475,385
5344,-2.948242188,-3.829101563,-4.932373047,455,-490,388
5349,-2.950683594,-3.825439453,-4.929931641,474,-453,372
5354,-2.947509766,-3.826904297,-4.937011719,474,-455,358
5359,-2.946777344,-3.824951172,-4.932373047,455,-498,384
5364,-2.946289063,-3.822265625,-4.933105469,462,-498,388
5369,-2.947021484,-3.822021484,-4.928955078,436,-487,371
5374,-2.943603516,-3.825927734,-4.941650391,455,-493,381
5379,-2.947753906,-3.827636719,-4.932617188,457,-460,391
5384,-2.944824219,-3.828125,-4.938720703,457,-463,367
5389,-2.947021484,-3.819335938,-4.931884766,446,-476,363
5394,-2.946289063,-3.823974609,-4.931396484,473,-499,385
5399,-2.943115234,-3.826416016,-4.931640625,445,-484,356
5404,-2.946777344,-3.823486328,-4.939208984,458,-467,363
5409,-2.9453125,-3.827636719,-4.936279297,466,-477,385
5415,-2.947265625,-3.829345703,-4.928955078,472,-479,376
5420,-2.946289063,-3.828125,-4.928466797,433,-477,374
5425,-2.949707031,-3.823486328,-4.942871094,452,-481,379
5430,-2.947021484,-3.826416016,-4.931884766,465,-490,376
5435,-2.946533203,-3.823486328,-4.939208984,442,-471,390
5440,-2.948486328,-3.823974609,-4.942871094,472,-470,402
5445,-2.94921875,-3.827636719,-4.940429688,441,-497,377
5450,-2.946044922,-3.827148438,-4.937255859,451,-488,386
5455,-2.946533203,-3.824462891,-4.935058594,462,-472,384
5460,-2.948486328,-3.828125,-4.934082031,481,-492,368
5465,-2.943603516,-3.825195313,-4.934082031,467,-500,404
5470,-2.946777344,-3.82421875,-4.931396484,464,-528,388
5475,-2.947753906,-3.828369141,-4.933349609,451,-486,371
5480,-2.943847656,-3.828369141,-4.9296875,475,-493,369
5485,-2.946533203,-3.828125,-4.938964844,475,-496,391
5490,-2.947753906,-3.824951172,-4.929931641,460,-495,381
5495,-2.945556641,-3.822021484,-4.930908203,463,-478,377
5500,-2.946289063,-3.824951172,-4.939697266,451,-488,380
5505,-2.948730469,-3.821533203,-4.933837891,464,-471,391
5510,-2.948974609,-3.824462891,-4.935791016,455,-488,360
5515,-2.947753906,-3.825683594,-4.930908203,455,-505,378
5520,-2.947998047,-3.825439453,-4.9296875,449,-480,383
5525,-2.944824219,-3.821044922,-4.9375,469,-505,365
5530,-2.948974609,-3.823486328,-4.938964844,466,-483,374
5535,-2.952148438,-3.825683594,-4.935058594,458,-499,368
5540,-2.94921875,-3.824951172,-4.924804688,473,-484,356
5545,-2.947509766,-3.830078125,-4.9375,459,-480,398
5551,-2.947509766,-3.821777344,-4.932617188,450,-476,384
5556,-2.947509766,-3.825439453,-4.936523438,470,-492,366
5561,-2.945068359,-3.822265625,-4.939697266,469,-478,371
5566,-2.946777344,-3.823730469,-4.939941406,460,-488,375
5571,-2.950683594,-3.823242188,-4.936279297,453,-461,379
5576,-2.949707031,-3.822021484,-4.928466797,460,-489,380
5581,-2.947265625,-3.828369141,-4.934814453,456,-469,367
5586,-2.945068359,-3.827392578,-4.937255859,481,-487,396
5591,-2.949951172,-3.824462891,-4.93359375,485,-502,361
5596,-2.950683594,-3.824951172,-4.93359375,476,-489,380
5601,-2.951904297,-3.823730469,-4.934570313,448,-476,404
5606,-2.949462891,-3.822509766,-4.927246094,447,-495,360
5611,-2.952392578,-3.823730469,-4.929931641,447,-478,376
5616,-2.943847656,-3.823242188,-4.928710938,465,-495,377
5621,-2.947265625,-3.825439453,-4.935302734,456,-478,354
5626,-2.948486328,-3.825195313,-4.930664063,465,-484,348
5631,-2.946289063,-3.823486328,-4.928710938,482,-476,385
5636,-2.948730469,-3.8203125,-4.934814453,462,-493,371
5641,-2.947998047,-3.823974609,-4.93359375,457,-481,363
5646,-2.950195313,-3.825683594,-4.934814453,462,-473,377
5651,-2.948242188,-3.830078125,-4.934326172,439,-493,357
5656,-2.946289063,-3.821044922,-4.938232422,450,-470,378
5661,-2.943115234,-3.82421875,-4.934570313,478,-490,393
5666,-2.948242188,-3.822753906,-4.936523438,465,-480,394
5671,-2.944580078,-3.823486328,-4.939208984,472,-487,369
5676,-2.946533203,-3.824951172,-4.931396484,447,-472,375
5681,-2.945800781,-3.824707031,-4.931152344,462,-485,362
5687,-2.94921875,-3.825683594,-4.935302734,463,-467,364
5692,-2.945800781,-3.826171875,-4.931152344,468,-490,377
5697,-2.947753906,-3.822753906,-4.934814453,455,-469,372
5702,-2.94921875,-3.824462891,-4.934570313,459,-491,382
5707,-2.949707031,-3.823486328,-4.938720703,461,-500,382
5712,-2.947021484,-3.826171875,-4.937744141,443,-486,383
5717,-2.9453125,-3.828613281,-4.937988281,471,-485,356
5722,-2.948486328,-3.826171875,-4.929443359,451,-494,379
5727,-2.948486328,-3.82421875,-4.935546875,478,-480,374
5732,-2.94921875,-3.820556641,-4.934082031,477,-500,364
5737,-2.946289063,-3.827392578,-4.931396484,446,-479,375
5742,-2.950195313,-3.824707031,-4.929199219,431,-483,379
5747,-2.948974609,-3.824707031,-4.937011719,447,-490,363
5752,-2.944580078,-3.821533203,-4.932128906,444,-477,375
5757,-2.950439453,-3.823486328,-4.931640625,475,-501,372
5762,-2.947265625,-3.825195313,-4.934570313,470,-501,372
5767,-2.950439453,-3.825195313,-4.939453125,458,-491,362
5772,-2.945556641,-3.824462891,-4.927978516,456,-496,401
5777,-2.949707031,-3.826660156,-4.928955078,454,-483,365
5782,-2.946533203,-3.828613281,-4.937988281,477,-484,405
5787,-2.945068359,-3.827880859,-4.942138672,445,-487,363
5792,-2.947509766,-3.828613281,-4.938232422,449,-481,384
5797,-2.948730469,-3.822021484,-4.937744141,451,-467,405
5802,-2.948486328,-3.822998047,-4.935546875,474,-461,373
5807,-2.94921875,-3.822753906,-4.937255859,452,-493,387
5812,-2.950683594,-3.822998047,-4.934082031,442,-477,374
5817,-2.946289063,-3.822753906,-4.929931641,446,-485,370
5823,-2.949462891,-3.827636719,-4.930664063,463,-481,362
5828,-2.947021484,-3.823974609,-4.934570313,452,-501,364
5833,-2.945068359,-3.825683594,-4.932128906,457,-502,403
5838,-2.951171875,-3.827148438,-4.936767578,460,-477,376
5843,-2.951416016,-3.823730469,-4.945556641,451,-512,368
5848,-2.946289063,-3.826416016,-4.93359375,457,-470,372
5853,-2.945800781,-3.823242188,-4.937255859,480,-465,354
5858,-2.945556641,-3.821044922,-4.935302734,460,-480,371
5863,-2.946533203,-3.829345703,-4.9375,483,-483,365
5868,-2.947021484,-3.823486328,-4.938476563,446,-481,370
5873,-2.949707031,-3.824951172,-4.937744141,474,-462,385
5878,-2.949707031,-3.825927734,-4.936279297,444,-496,376
5883,-2.944580078,-3.825439453,-4.939941406,452,-494,379
5888,-2.948974609,-3.825927734,-4.932373047,464,-491,385
5893,-2.946777344,-3.828857422,-4.93359375,470,-471,377
5898,-2.947265625,-3.828857422,-4.9375,471,-484,382
5903,-2.948730469,-3.829101563,-4.930419922,466,-492,376
5908,-2.947998047,-3.82421875,-4.9296875,460,-498,378
5913,-2.945556641,-3.825439453,-4.932373047,448,-474,365
5918,-2.946044922,-3.826904297,-4.931152344,484,-481,382
5923,-2.948974609,-3.827148438,-4.937744141,459,-479,392
5928,-2.945068359,-3.822265625,-4.936523438,462,-507,381
5933,-2.945800781,-3.822753906,-4.935302734,462,-480,375
5938,-2.944580078,-3.824951172,-4.939697266,481,-473,376
5943,-2.947265625,-3.825927734,-4.94140625,455,-485,384
5948,-2.947265625,-3.826660156,-4.936035156,467,-474,371
5953,-2.949951172,-3.832275391,-4.940185547,438,-475,370
5959,-2.9453125,-3.822265625,-4.938720703,465,-466,378
5964,-2.944580078,-3.824707031,-4.933105469,466,-480,391
5969,-2.94921875,-3.823486328,-4.937744141,457,-493,374
5974,-2.947753906,-3.825927734,-4.934814453,453,-486,373
5979,-2.947265625,-3.826171875,-4.932861328,477,-481,375
5984,-2.947265625,-3.823486328,-4.929931641,461,-485,362
5989,-2.947753906,-3.823486328,-4.931152344,450,-483,374
5994,-2.943603516,-3.824462891,-4.932373047,473,-485,389
5999,-2.946289063,-3.825195313,-4.931396484,461,-496,369
6004,-2.947509766,-3.826171875,-4.935791016,462,-486,381
6009,-2.948242188,-3.828613281,-4.935791016,458,-485,395
6014,-2.948974609,-3.827148438,-4.936035156,461,-485,386
6019,-2.943847656,-3.823730469,-4.929199219,456,-488,376
6024,-2.948730469,-3.831298828,-4.934570313,447,-492,370
6029,-2.945800781,-3.822998047,-4.929199219,458,-486,380
6034,-2.947753906,-3.826660156,-4.931640625,458,-475,379
6039,-2.948242188,-3.824951172,-4.935302734,453,-479,382
6044,-2.948730469,-3.823486328,-4.934326172,453,-478,396
6049,-2.948242188,-3.818359375,-4.935302734,440,-482,368
6054,-2.948242188,-3.825195313,-4.937744141,456,-491,381
6059,-2.9453125,-3.824462891,-4.932373047,453,-469,354
6064,-2.948974609,-3.825439453,-4.935302734,466,-488,376
6069,-2.946777344,-3.822753906,-4.932861328,463,-484,356
6074,-2.951660156,-3.826904297,-4.935546875,455,-470,373
6079,-2.947509766,-3.825927734,-4.93359375,461,-487,366
6084,-2.947509766,-3.822998047,-4.939941406,456,-476,396
6089,-2.946044922,-3.825927734,-4.938964844,463,-472,378
6095,-2.946533203,-3.826416016,-4.939941406,472,-476,372
6100,-2.946289063,-3.822509766,-4.932128906,469,-470,387
6105,-2.946044922,-3.825683594,-4.930664063,463,-503,358
6110,-2.946777344,-3.823486328,-4.931396484,467,-487,376
6115,-2.945800781,-3.828613281,-4.928955078,467,-477,358
6120,-2.951171875,-3.827880859,-4.935058594,463,-497,376
6125,-2.947998047,-3.827880859,-4.933349609,437,-484,376
6130,-2.951416016,-3.827392578,-4.930664063,473,-470,383
6135,-2.950683594,-3.822753906,-4.935058594,455,-483,391
6140,-2.942382813,-3.826416016,-4.936035156,464,-510,401
6145,-2.950195313,-3.824951172,-4.934326172,458,-471,368
6150,-2.947509766,-3.825683594,-4.937011719,432,-475,370
6155,-2.948730469,-3.826171875,-4.933349609,464,-474,377
6160,-2.947509766,-3.826660156,-4.930908203,452,-504,363
6165,-2.949951172,-3.820800781,-4.929443359,460,-488,372
6170,-2.949951172,-3.826171875,-4.931640625,476,-484,372
6175,-2.94921875,-3.825195313,-4.927001953,469,-509,393
6180,-2.949707031,-3.826660156,-4.932617188,449,-489,372
6185,-2.951416016,-3.823486328,-4.932373047,447,-488,390
6190,-2.950683594,-3.826660156,-4.941162109,452,-473,379
6195,-2.947998047,-3.823486328,-4.930175781,448,-479,345
6200,-2.944580078,-3.828857422,-4.939697266,466,-482,379
6205,-2.945556641,-3.823486328,-4.937744141,456,-484,366
6210,-2.946777344,-3.822753906,-4.934570313,473,-491,392
6215,-2.947998047,-3.822265625,-4.930419922,451,-473,398
6220,-2.947998047,-3.821289063,-4.934570313,458,-489,365
6225,-2.947021484,-3.826660156,-4.938476563,464,-454,378
6231,-2.946533203,-3.822021484,-4.933105469,450,-495,353
6236,-2.949951172,-3.823974609,-4.935546875,453,-472,380
6241,-2.949951172,-3.823486328,-4.94140625,463,-488,373
6246,-2.946289063,-3.823730469,-4.931152344,473,-485,369
6251,-2.946533203,-3.828857422,-4.930908203,443,-469,353
6256,-2.947998047,-3.824707031,-4.934326172,465,-484,371
6261,-2.945556641,-3.828125,-4.937255859,474,-475,382
6266,-2.94921875,-3.825683594,-4.937988281,451,-473,366
6271,-2.946044922,-3.825683594,-4.932617188,462,-485,363
6276,-2.946533203,-3.822998047,-4.928222656,474,-490,381
6281,-2.946289063,-3.826416016,-4.936523438,453,-508,387
6286,-2.948486328,-3.823486328,-4.928710938,460,-476,388
6291,-2.946044922,-3.82421875,-4.93359375,465,-463,377
6296,-2.947998047,-3.825439453,-4.928466797,459,-491,366
6301,-2.947509766,-3.828857422,-4.930908203,475,-491,376
6306,-2.949707031,-3.823486328,-4.9296875,467,-497,362
6311,-2.944580078,-3.824707031,-4.934814453,455,-489,376
6316,-2.948486328,-3.825195313,-4.939941406,476,-469,394
6321,-2.947021484,-3.824951172,-4.932861328,473,-486,376
6326,-2.943115234,-3.831298828,-4.935058594,481,-489,367
6331,-2.947265625,-3.826904297,-4.937011719,481,-486,381
6336,-2.948730469,-3.820556641,-4.93359375,455,-456,374
6341,-2.948974609,-3.824951172,-4.932128906,460,-483,381
6346,-2.945556641,-3.824707031,-4.934570313,466,-502,403
6351,-2.949462891,-3.824707031,-4.935302734,444,-471,381
6356,-2.947021484,-3.824707031,-4.939453125,449,-494,374
6361,-2.945800781,-3.826171875,-4.933105469,450,-477,360
6367,-2.945556641,-3.82421875,-4.936523438,459,-481,376
6372,-2.947509766,-3.826416016,-4.936035156,467,-453,382
6377,-2.950927734,-3.825683594,-4.931152344,457,-485,379
6382,-2.944580078,-3.825927734,-4.929199219,477,-485,386
6387,-2.947753906,-3.827392578,-4.930419922,451,-468,359
6392,-2.947509766,-3.823486328,-4.933837891,455,-485,347
6397,-2.94921875,-3.823242188,-4.934326172,457,-468,379
6402,-2.945068359,-3.822753906,-4.931884766,446,-493,384
6407,-2.948730469,-3.824462891,-4.931884766,460,-472,383
6412,-2.948730469,-3.822509766,-4.937988281,474,-495,381
6417,-2.947998047,-3.828125,-4.932617188,460,-496,359
6422,-2.947753906,-3.824707031,-4.934814453,474,-477,364
6427,-2.948974609,-3.825195313,-4.934814453,444,-492,361
6432,-2.9453125,-3.828613281,-4.934082031,463,-497,365
6437,-2.950683594,-3.824707031,-4.932128906,475,-495,374
6442,-2.945800781,-3.825195313,-4.934814453,446,-462,392
6447,-2.948242188,-3.823974609,-4.927734375,456,-519,375
6452,-2.947753906,-3.825439453,-4.933105469,435,-465,359
6457,-2.944824219,-3.824707031,-4.931884766,460,-495,372
6462,-2.9453125,-3.829589844,-4.931640625,477,-475,375
6467,-2.948974609,-3.821044922,-4.935791016,444,-496,379
6472,-2.946777344,-3.826416016,-4.929199219,478,-455,377
6477,-2.948730469,-3.827636719,-4.935302734,474,-485,387
6482,-2.945068359,-3.826416016,-4.931152344,456,-484,371
6487,-2.946533203,-3.827880859,-4.933837891,474,-493,376
6492,-2.947998047,-3.825927734,-4.937988281,459,-484,361
6497,-2.949951172,-3.821289063,-4.938232422,467,-472,357
6503,-2.950439453,-3.825439453,-4.944091797,469,-493,362
6508,-2.947998047,-3.824951172,-4.931884766,468,-492,350
6513,-2.944580078,-3.825927734,-4.933837891,457,-483,379
6518,-2.947753906,-3.827880859,-4.937255859,440,-499,366
6523,-2.947021484,-3.827392578,-4.932128906,447,-498,402
6528,-2.945556641,-3.827636719,-4.937988281,452,-479,365
6533,-2.951171875,-3.825927734,-4.932617188,475,-493,385
6538,-2.946289063,-3.823730469,-4.936767578,463,-488,389
6543,-2.945800781,-3.822021484,-4.935058594,456,-490,371
6548,-2.951171875,-3.824951172,-4.937744141,451,-471,360
6553,-2.952392578,-3.825195313,-4.931884766,451,-483,387
6558,-2.946533203,-3.828857422,-4.936035156,468,-487,380
6563,-2.947021484,-3.827148438,-4.937988281,462,-492,358
6568,-2.948486328,-3.827148438,-4.94140625,460,-467,366
6573,-2.950683594,-3.821533203,-4.934326172,445,-499,364
6578,-2.948486328,-3.823974609,-4.93359375,453,-485,384
6583,-2.949951172,-3.82421875,-4.931884766,464,-479,384
6588,-2.947753906,-3.827148438,-4.930908203,449,-494,388
6593,-2.947753906,-3.823730469,-4.939453125,436,-485,372
6598,-2.951660156,-3.825195313,-4.933837891,462,-475,394
6603,-2.946289063,-3.825683594,-4.937255859,450,-485,380
6608,-2.947021484,-3.823242188,-4.936035156,465,-495,383
6613,-2.951660156,-3.825439453,-4.927978516,447,-484,385
6618,-2.946533203,-3.825195313,-4.935546875,457,-483,381
6623,-2.94921875,-3.829345703,-4.932617188,460,-493,374
6628,-2.944091797,-3.825683594,-4.928222656,452,-481,371
6633,-2.9453125,-3.826660156,-4.932373047,434,-474,382
6639,-2.949951172,-3.821044922,-4.944091797,464,-496,393
6644,-2.950927734,-3.826171875,-4.93359375,450,-477,370
6649,-2.946533203,-3.825683594,-4.934082031,475,-462,366
6654,-2.945556641,-3.828613281,-4.93359375,435,-482,368
6659,-2.9453125,-3.826171875,-4.939941406,465,-475,365
6664,-2.946044922,-3.823242188,-4.938964844,445,-499,384
6669,-2.947998047,-3.828857422,-4.936279297,457,-486,390
6674,-2.946533203,-3.822998047,-4.928466797,468,-484,359
6679,-2.949951172,-3.826171875,-4.937988281,464,-463,370
6684,-2.948730469,-3.824707031,-4.928222656,446,-498,374
6689,-2.9453125,-3.829589844,-4.936279297,431,-473,366
6694,-2.946044922,-3.823486328,-4.932128906,454,-478,380
6699,-2.946777344,-3.826171875,-4.936035156,435,-493,385
6704,-2.94921875,-3.824462891,-4.929931641,455,-492,377
6709,-2.943603516,-3.822998047,-4.932861328,454,-487,361
6714,-2.946289063,-3.822998047,-4.929443359,459,-477,367
6719,-2.947021484,-3.825195313,-4.937988281,461,-503,396
6724,-2.948974609,-3.822998047,-4.932617188,470,-486,398
6729,-2.945068359,-3.828369141,-4.930419922,450,-493,351
6734,-2.948486328,-3.826171875,-4.936523438,446,-481,363
6739,-2.946289063,-3.826904297,-4.931152344,474,-474,382
6744,-2.946044922,-3.827636719,-4.935058594,443,-466,399
6749,-2.948242188,-3.826416016,-4.929199219,466,-485,366
6754,-2.947509766,-3.825683594,-4.929443359,441,-467,343
6759,-2.944091797,-3.826660156,-4.937011719,441,-494,385
6764,-2.944580078,-3.8203125,-4.931640625,444,-470,390
6769,-2.949951172,-3.821044922,-4.935058594,456,-474,363
6775,-2.953857422,-3.82421875,-4.936279297,465,-478,403
6780,-2.949462891,-3.822998047,-4.931396484,463,-481,352
6785,-2.947021484,-3.827636719,-4.927734375,457,-486,362
6790,-2.946289063,-3.828613281,-4.936767578,459,-480,357
6795,-2.9453125,-3.826660156,-4.941162109,460,-486,367
6800,-2.948974609,-3.822265625,-4.939453125,453,-473,385
6805,-2.951416016,-3.822509766,-4.936279297,465,-469,379
6810,-2.948242188,-3.822509766,-4.935546875,448,-476,358
6815,-2.947998047,-3.821777344,-4.929931641,451,-506,370
6820,-2.950439453,-3.823242188,-4.936279297,470,-459,366
6825,-2.948730469,-3.825683594,-4.935058594,447,-474,358
6830,-2.950439453,-3.826660156,-4.934570313,442,-470,369
6835,-2.948486328,-3.826660156,-4.925048828,465,-517,372
6840,-2.947998047,-3.825195313,-4.931396484,459,-474,381
6845,-2.946777344,-3.824951172,-4.930908203,472,-488,383
6850,-2.952880859,-3.827880859,-4.936279297,442,-486,383
6855,-2.945800781,-3.825439453,-4.939697266,463,-480,395
6860,-2.944580078,-3.824707031,-4.934570313,451,-479,376
6865,-2.950927734,-3.827148438,-4.93359375,459,-478,367
6870,-2.949462891,-3.824707031,-4.939697266,441,-467,365
6875,-2.944335938,-3.822998047,-4.932128906,466,-453,382
6880,-2.948486328,-3.826660156,-4.940185547,458,-486,350
6885,-2.947509766,-3.826660156,-4.929443359,447,-492,372
6890,-2.949707031,-3.825927734,-4.931396484,456,-468,390
6895,-2.952392578,-3.823242188,-4.931396484,457,-467,370
6900,-2.948730469,-3.822265625,-4.939941406,459,-493,379
6905,-2.953125,-3.826171875,-4.931640625,452,-467,374
6911,-2.946044922,-3.824462891,-4.927734375,467,-480,383
6916,-2.949951172,-3.821533203,-4.929199219,468,-490,353
6921,-2.94921875,-3.825439453,-4.93359375,467,-481,369
6926,-2.948242188,-3.826904297,-4.93359375,468,-500,360
6931,-2.947265625,-3.827392578,-4.937988281,447,-485,364
6936,-2.94921875,-3.82421875,-4.929931641,460,-499,370
6941,-2.948730469,-3.82421875,-4.934570313,447,-489,387
6946,-2.948730469,-3.823974609,-4.926025391,445,-472,364
6951,-2.950927734,-3.824462891,-4.928222656,481,-500,373
6956,-2.947265625,-3.826660156,-4.936767578,463,-474,391
6961,-2.945068359,-3.822509766,-4.939208984,475,-468,406
6966,-2.947509766,-3.828125,-4.940673828,468,-498,363
6971,-2.948730469,-3.82421875,-4.928710938,459,-465,347
6976,-2.945068359,-3.827636719,-4.935302734,448,-492,371
6981,-2.950195313,-3.821533203,-4.942138672,442,-483,369
6986,-2.951660156,-3.823974609,-4.936523438,451,-496,358
6991,-2.945556641,-3.824951172,-4.930664063,455,-479,389
6996,-2.943847656,-3.827880859,-4.932373047,453,-476,369
7001,-2.947998047,-3.824707031,-4.935791016,485,-472,363
7006,-2.9453125,-3.823730469,-4.933349609,448,-462,380
7011,-2.948730469,-3.823242188,-4.937744141,471,-472,360
7016,-2.947998047,-3.824707031,-4.937255859,471,-464,368
7021,-2.948242188,-3.826171875,-4.935791016,456,-485,359
7026,-2.94921875,-3.828613281,-4.937988281,443,-466,373
7031,-2.950927734,-3.827392578,-4.9296875,452,-482,394
7036,-2.946044922,-3.829101563,-4.931640625,453,-483,373
7041,-2.948974609,-3.819335938,-4.93359375,477,-487,371
7047,-2.947021484,-3.828369141,-4.938232422,459,-500,369
7052,-2.948974609,-3.825195313,-4.935546875,450,-465,391
7057,-2.946289063,-3.828369141,-4.934814453,461,-490,377
7062,-2.948730469,-3.827148438,-4.936523438,465,-494,383
7067,-2.948242188,-3.825439453,-4.932373047,477,-486,362
7072,-2.948730469,-3.825195313,-4.9453125,453,-487,379
7077,-2.948974609,-3.826660156,-4.934814453,462,-491,366
7082,-2.950195313,-3.825439453,-4.934570313,471,-482,378
7087,-2.947998047,-3.822753906,-4.9296875,448,-448,371
7092,-2.947021484,-3.827148438,-4.92578125,455,-485,379
7097,-2.943603516,-3.825683594,-4.937255859,454,-487,366
7102,-2.946533203,-3.823486328,-4.935302734,460,-471,370
7107,-2.949951172,-3.826660156,-4.940429688,467,-489,373
7112,-2.945068359,-3.823242188,-4.939208984,457,-493,372
7117,-2.948730469,-3.827636719,-4.936279297,452,-472,366
7122,-2.94921875,-3.827636719,-4.931396484,465,-471,364
7127,-2.946777344,-3.823730469,-4.934082031,455,-504,357
7132,-2.946044922,-3.827148438,-4.932861328,450,-489,378
7137,-2.945800781,-3.826171875,-4.931396484,457,-487,357
7142,-2.947753906,-3.823242188,-4.934570313,456,-498,369
7147,-2.947753906,-3.827148438,-4.927734375,473,-455,386
7152,-2.946777344,-3.824951172,-4.934570313,458,-489,349
7157,-2.952636719,-3.824462891,-4.935791016,433,-487,363
7162,-2.946289063,-3.825439453,-4.937011719,464,-483,389
7167,-2.946289063,-3.825927734,-4.934814453,462,-491,365
7172,-2.947509766,-3.822021484,-4.931884766,471,-484,361
7177,-2.948974609,-3.827392578,-4.932617188,462,-464,359
7183,-2.944335938,-3.823730469,-4.933837891,458,-474,371
7188,-2.951171875,-3.822265625,-4.929199219,441,-495,366
7193,-2.946777344,-3.828369141,-4.941650391,465,-490,371
7198,-2.950195313,-3.826416016,-4.940429688,463,-487,360
7203,-2.948974609,-3.827636719,-4.929199219,454,-497,366
7208,-2.949462891,-3.828125,-4.9375,460,-476,387
7213,-2.947265625,-3.829833984,-4.935791016,459,-501,391
7218,-2.949951172,-3.827392578,-4.938964844,463,-497,386
7223,-2.947753906,-3.82421875,-4.933105469,458,-494,379
7228,-2.947021484,-3.827880859,-4.933105469,459,-487,354
7233,-2.943603516,-3.823730469,-4.935791016,480,-495,358
7238,-2.949462891,-3.826904297,-4.934814453,469,-475,353
7243,-2.947265625,-3.823486328,-4.936035156,470,-481,367
7248,-2.9453125,-3.822509766,-4.931152344,478,-500,356
7253,-2.949707031,-3.827148438,-4.931640625,449,-479,363
7258,-2.947021484,-3.821533203,-4.929931641,461,-492,364
7263,-2.946044922,-3.825439453,-4.931396484,468,-487,385
7268,-2.952148438,-3.828369141,-4.938232422,456,-493,370
7273,-2.950927734,-3.824707031,-4.934814453,433,-493,376
7278,-2.945068359,-3.823974609,-4.929199219,458,-493,375
7283,-2.947509766,-3.823730469,-4.934814453,466,-498,369
7288,-2.946289063,-3.824462891,-4.939941406,471,-479,393
7293,-2.945800781,-3.82421875,-4.933105469,453,-463,375
7298,-2.948486328,-3.824462891,-4.931884766,472,-470,378
7303,-2.947753906,-3.822509766,-4.9375,465,-458,389
7308,-2.946533203,-3.824951172,-4.932128906,468,-485,343
7313,-2.951660156,-3.821044922,-4.937255859,452,-498,371
7319,-2.947998047,-3.824707031,-4.935546875,457,-484,373
7324,-2.946044922,-3.826416016,-4.924072266,448,-461,371
7329,-2.945068359,-3.828125,-4.930664063,452,-483,381
7334,-2.948974609,-3.823730469,-4.937011719,442,-498,360
7339,-2.950439453,-3.826416016,-4.931640625,459,-487,349
7344,-2.947021484,-3.825683594,-4.936523438,458,-479,389
7349,-2.947265625,-3.821533203,-4.936279297,477,-489,380
7354,-2.949462891,-3.824951172,-4.932861328,459,-488,372
7359,-2.943603516,-3.823486328,-4.934814453,454,-465,356
7364,-2.945556641,-3.828857422,-4.93359375,462,-509,364
7369,-2.94921875,-3.825439453,-4.930175781,446,-488,347
7374,-2.947021484,-3.826171875,-4.937988281,466,-473,406
7379,-2.947998047,-3.822021484,-4.937255859,469,-486,357
7384,-2.947265625,-3.830078125,-4.936035156,446,-493,390
7389,-2.946044922,-3.823486328,-4.937744141,452,-494,380
7394,-2.948242188,-3.826904297,-4.936035156,458,-500,367
7399,-2.947021484,-3.825195313,-4.933105469,461,-484,362
7404,-2.945556641,-3.821533203,-4.940673828,471,-497,378
7409,-2.9453125,-3.823730469,-4.929931641,468,-481,384
7414,-2.945800781,-3.823730469,-4.930419922,460,-460,362
7419,-2.948486328,-3.824462891,-4.937988281,460,-508,385
7424,-2.947753906,-3.827148438,-4.943847656,446,-499,395
7429,-2.945800781,-3.825439453,-4.934570313,443,-495,351
7434,-2.945800781,-3.827880859,-4.931396484,463,-479,363
7439,-2.949951172,-3.824951172,-4.938964844,473,-467,373
7444,-2.944335938,-3.824707031,-4.933349609,466,-483,378
7449,-2.945800781,-3.82421875,-4.93359375,468,-490,351
7455,-2.947265625,-3.826171875,-4.937988281,438,-488,365
7460,-2.946777344,-3.828613281,-4.937011719,472,-476,384
7465,-2.945556641,-3.828125,-4.938232422,458,-473,363
7470,-2.950195313,-3.824951172,-4.933837891,490,-482,377
7475,-2.949951172,-3.824707031,-4.931152344,482,-482,379
7480,-2.947021484,-3.820800781,-4.928222656,452,-486,381
7485,-2.948242188,-3.826171875,-4.930419922,455,-491,382
7490,-2.946289063,-3.822265625,-4.933349609,476,-487,376
7495,-2.946533203,-3.826904297,-4.937255859,453,-483,385
7500,-2.947509766,-3.825439453,-4.932128906,467,-481,381
7505,-2.949951172,-3.824707031,-4.934326172,457,-469,371
7510,-2.948486328,-3.823486328,-4.930664063,479,-501,377
7515,-2.950439453,-3.822753906,-4.92578125,463,-491,383
7520,-2.94921875,-3.824707031,-4.935546875,480,-470,364
7525,-2.947021484,-3.828369141,-4.933349609,451,-487,355
7530,-2.944824219,-3.823730469,-4.931884766,467,-474,387
7535,-2.948974609,-3.826660156,-4.934814453,453,-473,393
7540,-2.948486328,-3.82421875,-4.940917969,439,-496,358
7545,-2.947265625,-3.82421875,-4.935791016,465,-492,369
7550,-2.950927734,-3.821289063,-4.93359375,449,-475,375
7555,-2.949462891,-3.827392578,-4.931884766,461,-481,383
7560,-2.947509766,-3.828613281,-4.92578125,444,-470,378
7565,-2.947265625,-3.826416016,-4.931640625,470,-466,376
7570,-2.943603516,-3.830810547,-4.926513672,460,-487,354
7575,-2.947265625,-3.827392578,-4.936767578,457,-503,352
7580,-2.948242188,-3.825439453,-4.932861328,460,-463,376
7585,-2.946289063,-3.823730469,-4.937255859,452,-493,376
7591,-2.947509766,-3.825195313,-4.923339844,474,-490,371
7596,-2.946533203,-3.822021484,-4.940917969,455,-476,357
7601,-2.947021484,-3.823974609,-4.937011719,473,-485,366
7606,-2.947998047,-3.824707031,-4.9375,436,-478,358
7611,-2.949707031,-3.823974609,-4.936279297,452,-473,342
7616,-2.947021484,-3.823974609,-4.934326172,469,-497,379
7621,-2.946289063,-3.82421875,-4.940917969,468,-480,361
7626,-2.949707031,-3.822753906,-4.928222656,457,-471,395
7631,-2.944580078,-3.823486328,-4.935302734,460,-494,388
7636,-2.948242188,-3.82421875,-4.933349609,460,-488,389
7641,-2.944824219,-3.828369141,-4.930419922,466,-472,369
7646,-2.949951172,-3.826904297,-4.941162109,484,-501,384
7651,-2.948486328,-3.8203125,-4.928466797,463,-479,357
7656,-2.946044922,-3.823486328,-4.932617188,455,-478,382
7661,-2.946533203,-3.825927734,-4.941650391,453,-494,386
7666,-2.947265625,-3.825195313,-4.934326172,462,-484,386
7671,-2.947021484,-3.824462891,-4.937011719,469,-470,386
7676,-2.949462891,-3.827148438,-4.930664063,468,-470,385
7681,-2.947265625,-3.823486328,-4.931640625,457,-474,372
7686,-2.948730469,-3.824462891,-4.934082031,455,-479,366
7691,-2.944091797,-3.829345703,-4.934082031,439,-514,375
7696,-2.948486328,-3.826660156,-4.932373047,469,-465,377
7701,-2.950439453,-3.824462891,-4.931640625,444,-492,368
7706,-2.943359375,-3.826660156,-4.931152344,472,-503,387
7711,-2.947021484,-3.822265625,-4.935302734,484,-486,368
7716,-2.945556641,-3.824462891,-4.930419922,482,-478,361
7721,-2.949951172,-3.819580078,-4.938232422,459,-471,350
7727,-2.948730469,-3.82421875,-4.929443359,485,-475,369
7732,-2.948486328,-3.825195313,-4.937011719,449,-477,387
7737,-2.943847656,-3.826416016,-4.936767578,452,-491,366
7742,-2.944824219,-3.826904297,-4.935058594,463,-486,354
7747,-2.949462891,-3.824951172,-4.936035156,479,-481,368
7752,-2.950439453,-3.830322266,-4.932861328,461,-480,362
7757,-2.953613281,-3.828857422,-4.934082031,440,-495,398
7762,-2.944824219,-3.825683594,-4.937988281,442,-478,363
7767,-2.946533203,-3.822753906,-4.935546875,445,-487,363
7772,-2.947021484,-3.825439453,-4.934082031,452,-481,371
7777,-2.948974609,-3.823242188,-4.942138672,458,-480,374
7782,-2.947265625,-3.826416016,-4.931884766,468,-505,396
7787,-2.945556641,-3.824707031,-4.929931641,470,-480,393
7792,-2.948730469,-3.823974609,-4.926757813,439,-471,360
7797,-2.947753906,-3.825927734,-4.936767578,470,-513,388
7802,-2.949951172,-3.82421875,-4.937255859,470,-486,384
7807,-2.947998047,-3.827392578,-4.939208984,443,-486,382
7812,-2.94921875,-3.827392578,-4.931396484,448,-485,410
7817,-2.952148438,-3.824707031,-4.931640625,456,-500,375
7822,-2.947265625,-3.826171875,-4.929931641,467,-492,381
7827,-2.946777344,-3.826904297,-4.935058594,476,-496,363
7832,-2.952392578,-3.826416016,-4.93359375,460,-490,366
7837,-2.949707031,-3.828125,-4.933349609,470,-477,390
7842,-2.948242188,-3.826171875,-4.934570313,467,-472,383
7847,-2.947998047,-3.824462891,-4.940185547,469,-480,388
7852,-2.953125,-3.823242188,-4.934814453,462,-487,380
7857,-2.947753906,-3.827392578,-4.935791016,462,-475,362
7863,-2.947021484,-3.826171875,-4.9296875,448,-466,389
7868,-2.945068359,-3.827636719,-4.927490234,454,-477,372
7873,-2.949707031,-3.827880859,-4.940429688,461,-471,368
7878,-2.948974609,-3.824462891,-4.938232422,463,-472,369
7883,-2.9453125,-3.8203125,-4.931640625,447,-472,369
7888,-2.9453125,-3.825195313,-4.928955078,468,-461,365
7893,-2.945556641,-3.828125,-4.937011719,450,-485,400
7898,-2.950195313,-3.823974609,-4.930664063,458,-496,364
7903,-2.951171875,-3.823974609,-4.927490234,459,-488,356
7908,-2.951904297,-3.827392578,-4.935791016,458,-476,371
7913,-2.947265625,-3.828613281,-4.93359375,475,-479,378
7918,-2.946289063,-3.826904297,-4.936279297,457,-466,392
7923,-2.947021484,-3.819335938,-4.930664063,473,-471,363
7928,-2.946533203,-3.827148438,-4.927001953,460,-486,364
7933,-2.947753906,-3.828613281,-4.930175781,455,-469,394
7938,-2.948242188,-3.825683594,-4.931640625,441,-487,391
7943,-2.944580078,-3.825195313,-4.934570313,483,-478,375
7948,-2.9453125,-3.82421875,-4.932861328,462,-476,363
7953,-2.946777344,-3.817871094,-4.934326172,438,-474,363
7958,-2.950195313,-3.823974609,-4.940429688,455,-499,385
7963,-2.947509766,-3.825195313,-4.927978516,455,-473,374
7968,-2.951171875,-3.822021484,-4.923828125,458,-486,384
7973,-2.944091797,-3.827392578,-4.934082031,480,-490,366
7978,-2.947998047,-3.828125,-4.932861328,455,-478,356
7983,-2.946289063,-3.824951172,-4.936767578,467,-472,382
7988,-2.9453125,-3.825439453,-4.9375,460,-449,372
7993,-2.951171875,-3.820800781,-4.934814453,441,-482,376
7999,-2.947509766,-3.824707031,-4.932373047,448,-495,363
8004,-2.946533203,-3.826171875,-4.936523438,457,-480,349
8009,-2.94921875,-3.823486328,-4.937744141,471,-488,347
8014,-2.947265625,-3.823974609,-4.925292969,469,-478,371
8019,-2.947753906,-3.825927734,-4.935058594,457,-476,394
8024,-2.947509766,-3.821533203,-4.932861328,445,-496,351
8029,-2.946777344,-3.825683594,-4.928466797,457,-489,383
8034,-2.947998047,-3.825683594,-4.931640625,458,-469,358
8039,-2.946777344,-3.823974609,-4.936279297,448,-463,378
8044,-2.950683594,-3.825927734,-4.930175781,474,-471,373
8049,-2.949462891,-3.828857422,-4.935302734,458,-483,380
8054,-2.946289063,-3.825439453,-4.928222656,453,-502,362
8059,-2.950927734,-3.826416016,-4.934570313,458,-495,385
8064,-2.944091797,-3.822021484,-4.933105469,449,-477,378
8069,-2.947998047,-3.824462891,-4.938476563,460,-479,363
8074,-2.948242188,-3.823730469,-4.930419922,453,-477,357
8079,-2.947509766,-3.822509766,-4.926513672,458,-474,375
8084,-2.948730469,-3.823974609,-4.929931641,475,-472,377
8089,-2.944091797,-3.825195313,-4.941650391,476,-477,385
8094,-2.946777344,-3.828613281,-4.928710938,474,-482,394
8099,-2.950927734,-3.826416016,-4.934082031,460,-490,364
8104,-2.948974609,-3.823242188,-4.936523438,457,-476,345
8109,-2.947021484,-3.825927734,-4.936035156,471,-472,368
8114,-2.947021484,-3.822021484,-4.932373047,465,-489,376
8119,-2.947265625,-3.822265625,-4.934326172,470,-508,364
8124,-2.94921875,-3.822509766,-4.931640625,481,-498,374
8129,-2.94921875,-3.823730469,-4.935791016,484,-494,371
8135,-2.947509766,-3.826171875,-4.932373047,460,-473,375
8140,-2.948974609,-3.82421875,-4.932861328,463,-493,396
8145,-2.947509766,-3.824951172,-4.932617188,485,-475,374
8150,-2.951171875,-3.823730469,-4.931640625,455,-481,390
8155,-2.947021484,-3.829589844,-4.9296875,459,-484,395
8160,-2.947265625,-3.827880859,-4.936279297,481,-514,364
8165,-2.947509766,-3.821777344,-4.931152344,453,-457,373
8170,-2.947998047,-3.827880859,-4.934326172,452,-495,372
8175,-2.947509766,-3.826171875,-4.94140625,475,-499,380
8180,-2.9453125,-3.825927734,-4.9375,490,-479,359
8185,-2.944335938,-3.822509766,-4.934082031,470,-482,380
8190,-2.947753906,-3.828613281,-4.925048828,446,-506,388
8195,-2.947753906,-3.826660156,-4.933105469,441,-481,374
8200,-2.94921875,-3.826416016,-4.936279297,455,-471,360
8205,-2.946044922,-3.824462891,-4.930175781,454,-482,369
8210,-2.951904297,-3.823486328,-4.932128906,458,-473,392
8215,-2.952148438,-3.829101563,-4.935791016,454,-451,384
8220,-2.946044922,-3.826904297,-4.936767578,467,-475,359
8225,-2.944824219,-3.824707031,-4.934814453,459,-472,370
8230,-2.951904297,-3.826904297,-4.929443359,459,-494,367
8235,-2.947753906,-3.827148438,-4.935302734,484,-501,373
8240,-2.9453125,-3.823730469,-4.940185547,453,-499,387
8245,-2.945556641,-3.828369141,-4.927978516,455,-500,387
8250,-2.9453125,-3.822021484,-4.940673828,464,-465,379
8255,-2.946533203,-3.824951172,-4.930664063,465,-479,368
8260,-2.948974609,-3.821044922,-4.930419922,460,-486,393
8265,-2.948242188,-3.823242188,-4.932617188,470,-462,366
8271,-2.949951172,-3.828857422,-4.93359375,469,-481,350
8276,-2.947509766,-3.82421875,-4.933837891,458,-471,377
8281,-2.947753906,-3.827392578,-4.93359375,460,-495,365
8286,-2.955566406,-3.822265625,-4.931396484,447,-493,375
8291,-2.946777344,-3.826660156,-4.93359375,451,-497,368
8296,-2.945556641,-3.823242188,-4.935058594,439,-486,342
8301,-2.948486328,-3.821044922,-4.934814453,451,-468,367
8306,-2.947021484,-3.827148438,-4.938964844,452,-486,369
8311,-2.950195313,-3.824462891,-4.941162109,463,-492,380
8316,-2.944580078,-3.825439453,-4.929443359,452,-497,368
8321,-2.9453125,-3.826660156,-4.929443359,474,-476,350
8326,-2.944335938,-3.823486328,-4.932373047,446,-484,373
8331,-2.947509766,-3.825927734,-4.930664063,454,-488,381
8336,-2.9453125,-3.822509766,-4.937988281,460,-497,354
8341,-2.945068359,-3.827148438,-4.940673828,459,-475,398
8346,-2.951660156,-3.825439453,-4.936523438,476,-510,398
8351,-2.950683594,-3.829833984,-4.940673828,466,-506,381
8356,-2.947021484,-3.823974609,-4.93359375,454,-512,361
8361,-2.947753906,-3.824707031,-4.934814453,470,-488,348
8366,-2.94921875,-3.826904297,-4.937255859,452,-497,381
8371,-2.948242188,-3.825439453,-4.938720703,460,-496,348
8376,-2.945556641,-3.824951172,-4.936767578,476,-516,385
8381,-2.9453125,-3.828857422,-4.935791016,452,-480,388
8386,-2.948730469,-3.823242188,-4.935546875,483,-484,380
8391,-2.945800781,-3.825439453,-4.932617188,474,-474,395
8396,-2.947265625,-3.827636719,-4.932373047,471,-481,376
8401,-2.94921875,-3.823242188,-4.930908203,439,-496,360
8407,-2.942871094,-3.831787109,-4.933105469,442,-485,370
8412,-2.945800781,-3.830078125,-4.928222656,449,-498,379
8417,-2.948730469,-3.823974609,-4.931152344,450,-497,375
8422,-2.944091797,-3.825439453,-4.933349609,463,-484,385
8427,-2.948730469,-3.827148438,-4.933105469,465,-482,387
8432,-2.946044922,-3.827148438,-4.932128906,481,-487,401
8437,-2.946533203,-3.822509766,-4.938476563,465,-486,357
8442,-2.947753906,-3.826904297,-4.935058594,463,-460,341
8447,-2.947753906,-3.823242188,-4.933349609,471,-503,373
8452,-2.950927734,-3.827880859,-4.9296875,474,-494,385
8457,-2.950195313,-3.826660156,-4.93359375,466,-496,387
8462,-2.946533203,-3.827636719,-4.931640625,447,-476,394
8467,-2.94921875,-3.825195313,-4.930664063,460,-484,383
8472,-2.950195313,-3.828125,-4.933349609,473,-466,354
8477,-2.949951172,-3.824707031,-4.931884766,460,-469,378
8482,-2.949462891,-3.825195313,-4.936279297,452,-485,372
8487,-2.949951172,-3.825195313,-4.928466797,475,-499,379
8492,-2.947998047,-3.82421875,-4.928222656,464,-485,367
8497,-2.950683594,-3.825927734,-4.932373047,449,-486,360
8502,-2.946533203,-3.823974609,-4.941894531,462,-485,370
8507,-2.949462891,-3.824951172,-4.937011719,438,-472,363
8512,-2.948486328,-3.825927734,-4.929199219,467,-499,365
8517,-2.945800781,-3.824462891,-4.9375,475,-485,368
8522,-2.943847656,-3.824462891,-4.935058594,458,-485,373
8527,-2.947998047,-3.825683594,-4.936035156,469,-496,362
8532,-2.943847656,-3.828125,-4.939697266,445,-483,358
8537,-2.944824219,-3.826171875,-4.935302734,440,-478,364
8543,-2.944335938,-3.830322266,-4.937011719,467,-489,366
8548,-2.945556641,-3.824462891,-4.934326172,469,-458,386
8553,-2.947021484,-3.826904297,-4.935546875,451,-501,385
8558,-2.948242188,-3.822021484,-4.932861328,471,-481,360
8563,-2.943847656,-3.824707031,-4.931396484,446,-464,371
8568,-2.94921875,-3.823486328,-4.937255859,450,-482,383
8573,-2.949707031,-3.822998047,-4.936523438,461,-477,364
8578,-2.945068359,-3.824707031,-4.937255859,447,-476,382
8583,-2.948974609,-3.826171875,-4.932128906,474,-455,388
8588,-2.946533203,-3.828613281,-4.93359375,452,-476,374
8593,-2.949951172,-3.825683594,-4.938964844,456,-486,371
8598,-2.947998047,-3.822509766,-4.931640625,440,-483,354
8603,-2.947509766,-3.825927734,-4.931396484,459,-491,358
8608,-2.946044922,-3.827148438,-4.935791016,460,-499,385
8613,-2.948486328,-3.828125,-4.933837891,464,-474,378
8618,-2.947509766,-3.825683594,-4.929931641,471,-483,398
8623,-2.94921875,-3.824707031,-4.934814453,460,-490,371
8628,-2.948730469,-3.820068359,-4.929199219,444,-512,373
8633,-2.949462891,-3.823730469,-4.923339844,461,-489,395
8638,-2.948486328,-3.827148438,-4.931396484,457,-481,362
8643,-2.948730469,-3.824951172,-4.934082031,461,-470,379
8648,-2.950927734,-3.829589844,-4.939697266,463,-491,381
8653,-2.946777344,-3.826171875,-4.93359375,496,-474,380
8658,-2.947998047,-3.829589844,-4.929199219,461,-487,375
8663,-2.951171875,-3.820800781,-4.936767578,469,-469,378
8668,-2.946044922,-3.828125,-4.932128906,462,-484,381
8673,-2.949951172,-3.826171875,-4.930175781,447,-474,331
8679,-2.949462891,-3.824951172,-4.935302734,451,-485,384
8684,-2.949707031,-3.823730469,-4.927734375,459,-484,363
8689,-2.947021484,-3.822021484,-4.940429688,450,-478,375
8694,-2.947753906,-3.826171875,-4.930908203,463,-495,394
8699,-2.945068359,-3.827880859,-4.936279297,471,-470,369
8704,-2.947753906,-3.826660156,-4.930175781,456,-504,359
8709,-2.949707031,-3.826171875,-4.93359375,452,-476,370
8714,-2.946777344,-3.826660156,-4.934570313,476,-461,381
8719,-2.943603516,-3.825195313,-4.932373047,463,-486,360
8724,-2.949707031,-3.823242188,-4.935058594,466,-492,385
8729,-2.949707031,-3.824951172,-4.927246094,476,-473,390
8734,-2.944335938,-3.822998047,-4.932128906,465,-475,384
8739,-2.946533203,-3.827636719,-4.931396484,461,-484,368
8744,-2.948974609,-3.824462891,-4.936523438,448,-480,360
8749,-2.944824219,-3.826904297,-4.933105469,467,-486,368
8754,-2.946289063,-3.823974609,-4.932373047,455,-491,375
8759,-2.949951172,-3.822265625,-4.930175781,466,-491,366
8764,-2.947753906,-3.822265625,-4.934570313,452,-494,397
8769,-2.949951172,-3.825439453,-4.931152344,448,-491,375
8774,-2.947265625,-3.824951172,-4.934570313,454,-463,403
8779,-2.947265625,-3.828857422,-4.940429688,450,-468,363
8784,-2.947265625,-3.824462891,-4.930419922,471,-497,383
8789,-2.945068359,-3.824462891,-4.931640625,467,-485,381
8794,-2.948242188,-3.827148438,-4.928466797,452,-488,358
8799,-2.946044922,-3.825927734,-4.940917969,443,-480,375
8804,-2.945068359,-3.824462891,-4.934570313,464,-483,389
8809,-2.944824219,-3.825439453,-4.935058594,446,-500,365
8815,-2.946777344,-3.826660156,-4.936523438,438,-498,355
8820,-2.948486328,-3.824707031,-4.934326172,460,-484,378
8825,-2.946777344,-3.824951172,-4.932861328,459,-485,362
8830,-2.947265625,-3.828369141,-4.936523438,444,-461,374
8835,-2.948730469,-3.827148438,-4.935791016,442,-459,358
8840,-2.94921875,-3.824462891,-4.927734375,455,-491,381
8845,-2.948242188,-3.828125,-4.931640625,479,-493,357
8850,-2.945556641,-3.823730469,-4.935302734,465,-489,373
8855,-2.945800781,-3.826171875,-4.934570313,459,-467,369
8860,-2.952148438,-3.823242188,-4.930908203,451,-466,380
8865,-2.948974609,-3.822753906,-4.927490234,454,-482,386
8870,-2.947021484,-3.821289063,-4.931884766,478,-485,373
8875,-2.945800781,-3.833251953,-4.931640625,465,-494,374
8880,-2.950439453,-3.824951172,-4.933837891,453,-482,357
8885,-2.942871094,-3.822021484,-4.931152344,479,-500,368
8890,-2.947753906,-3.830810547,-4.934326172,461,-474,391
8895,-2.947021484,-3.828369141,-4.936279297,458,-493,384
8900,-2.949462891,-3.826416016,-4.935058594,440,-488,372
8905,-2.946533203,-3.825195313,-4.937255859,436,-469,374
8910,-2.946289063,-3.825683594,-4.936523438,461,-470,360
8915,-2.944824219,-3.821533203,-4.929443359,460,-476,388
8920,-2.947021484,-3.826171875,-4.937255859,462,-492,386
8925,-2.944335938,-3.822509766,-4.937011719,462,-468,374
8930,-2.947021484,-3.828125,-4.933349609,447,-481,369
8935,-2.945800781,-3.826904297,-4.936279297,443,-478,390
8940,-2.949951172,-3.825439453,-4.933349609,445,-478,371
8945,-2.949462891,-3.829833984,-4.935302734,456,-476,396
8950,-2.946777344,-3.825195313,-4.935546875,466,-507,373
8956,-2.947021484,-3.821044922,-4.932373047,460,-488,368
8961,-2.948242188,-3.827392578,-4.933105469,481,-479,366
8966,-2.948486328,-3.827392578,-4.93359375,466,-489,360
8971,-2.948242188,-3.826171875,-4.936035156,456,-482,376
8976,-2.946044922,-3.825927734,-4.930419922,473,-511,376
8981,-2.944824219,-3.823730469,-4.932373047,458,-472,355
8986,-2.946289063,-3.826171875,-4.928466797,460,-500,361
8991,-2.947998047,-3.823242188,-4.927734375,466,-493,371
8996,-2.946777344,-3.825195313,-4.937744141,467,-488,382
9001,-2.948974609,-3.823486328,-4.936279297,449,-499,377
9006,-2.948974609,-3.82421875,-4.930664063,459,-485,390
9011,-2.943603516,-3.826904297,-4.932617188,467,-486,360
9016,-2.950683594,-3.828369141,-4.942626953,457,-500,353
9021,-2.947998047,-3.824951172,-4.928710938,469,-490,365
9026,-2.948242188,-3.825683594,-4.938232422,476,-495,367
9031,-2.947509766,-3.827148438,-4.927734375,461,-494,369
9036,-2.947998047,-3.822265625,-4.943847656,472,-480,392
9041,-2.950439453,-3.825439453,-4.938476563,446,-470,372
9046,-2.951904297,-3.825683594,-4.935546875,469,-484,396
9051,-2.944580078,-3.831298828,-4.933349609,465,-494,378
9056,-2.946777344,-3.824951172,-4.932861328,460,-510,391
9061,-2.945800781,-3.827636719,-4.926513672,436,-478,359
9066,-2.946777344,-3.827880859,-4.940185547,461,-488,366
9071,-2.950683594,-3.827148438,-4.941162109,452,-476,373
9076,-2.948730469,-3.826660156,-4.928222656,456,-494,342
9081,-2.944335938,-3.823486328,-4.929199219,470,-497,391
9086,-2.94921875,-3.829345703,-4.928710938,465,-491,389
9092,-2.950195313,-3.817871094,-4.932617188,445,-486,354
9097,-2.947021484,-3.826171875,-4.939453125,473,-477,362
9102,-2.947509766,-3.828369141,-4.936767578,453,-475,357
9107,-2.947753906,-3.823730469,-4.934326172,450,-486,370
9112,-2.948486328,-3.822509766,-4.941894531,443,-471,387
9117,-2.948730469,-3.824951172,-4.937011719,461,-474,367
9122,-2.949462891,-3.824951172,-4.937011719,459,-509,377
9127,-2.951416016,-3.827392578,-4.932128906,471,-472,378
9132,-2.948486328,-3.825927734,-4.935058594,439,-496,359
9137,-2.947998047,-3.826904297,-4.934326172,460,-494,348
9142,-2.949951172,-3.827880859,-4.937744141,455,-481,363
9147,-2.946777344,-3.825195313,-4.930419922,466,-472,399
9152,-2.948730469,-3.826416016,-4.934326172,453,-479,356
9157,-2.947998047,-3.826660156,-4.93359375,466,-494,384
9162,-2.947265625,-3.822998047,-4.932861328,437,-483,385
9167,-2.948486328,-3.824951172,-4.929931641,450,-475,394
9172,-2.947753906,-3.821533203,-4.928710938,483,-484,361
9177,-2.947021484,-3.823974609,-4.923828125,460,-483,378
9182,-2.946533203,-3.826660156,-4.938232422,445,-504,362
9187,-2.946044922,-3.825927734,-4.931396484,449,-494,372
9192,-2.950195313,-3.827636719,-4.933105469,481,-489,389
9197,-2.946044922,-3.825439453,-4.932617188,445,-471,375
9202,-2.947998047,-3.825195313,-4.935302734,463,-483,367
9207,-2.947753906,-3.826660156,-4.931152344,448,-514,379
9212,-2.950683594,-3.818847656,-4.938476563,463,-497,384
9217,-2.944091797,-3.827392578,-4.936767578,457,-499,373
9222,-2.9453125,-3.822753906,-4.930175781,463,-477,364
9228,-2.947509766,-3.822998047,-4.934814453,466,-489,377
9233,-2.946044922,-3.827148438,-4.935058594,463,-501,372
9238,-2.947509766,-3.82421875,-4.931884766,474,-469,382
9243,-2.951660156,-3.828613281,-4.930419922,436,-470,377
9248,-2.945556641,-3.827880859,-4.938476563,469,-471,386
9253,-2.947509766,-3.827148438,-4.935546875,462,-475,359
9258,-2.946533203,-3.823486328,-4.931396484,476,-462,396
9263,-2.947509766,-3.825683594,-4.934570313,463,-503,361
9268,-2.946533203,-3.828369141,-4.936523438,462,-498,365
9273,-2.94921875,-3.822509766,-4.934814453,448,-465,376
9278,-2.947753906,-3.826660156,-4.934570313,462,-515,391
9283,-2.950927734,-3.825927734,-4.934814453,481,-475,362
9288,-2.942871094,-3.823974609,-4.937255859,482,-502,359
9293,-2.947998047,-3.824951172,-4.935546875,490,-487,364
9298,-2.949951172,-3.821777344,-4.935058594,441,-497,367
9303,-2.947021484,-3.823242188,-4.928710938,460,-494,361
9308,-2.946044922,-3.825927734,-4.936279297,451,-493,359
9313,-2.944824219,-3.825195313,-4.938476563,465,-485,389
9318,-2.951171875,-3.827636719,-4.935791016,465,-467,383
9323,-2.951171875,-3.826416016,-4.930908203,466,-486,362
9328,-2.948242188,-3.82421875,-4.938964844,478,-489,378
9333,-2.947753906,-3.821777344,-4.932373047,463,-482,387
9338,-2.948730469,-3.827636719,-4.935546875,484,-470,370
9343,-2.947265625,-3.823974609,-4.935302734,457,-469,391
9348,-2.942871094,-3.826416016,-4.930419922,457,-480,365
9353,-2.949462891,-3.826660156,-4.936279297,463,-496,363
9358,-2.951171875,-3.824951172,-4.925292969,436,-495,357
9364,-2.951416016,-3.825927734,-4.936279297,458,-487,379
9369,-2.947265625,-3.825195313,-4.932128906,465,-471,387
9374,-2.948242188,-3.827392578,-4.934814453,446,-483,366
9379,-2.945800781,-3.827148438,-4.937988281,462,-491,344
9384,-2.944335938,-3.828369141,-4.935058594,457,-480,374
9389,-2.950927734,-3.825927734,-4.9296875,451,-480,371
9394,-2.949462891,-3.819335938,-4.936523438,466,-490,370
9399,-2.946044922,-3.823974609,-4.932128906,467,-484,380
9404,-2.950683594,-3.826904297,-4.930175781,452,-478,373
9409,-2.94921875,-3.824951172,-4.935058594,463,-489,359
9414,-2.947509766,-3.822509766,-4.936523438,474,-484,368
9419,-2.949951172,-3.825683594,-4.936767578,468,-475,372
9424,-2.94921875,-3.825195313,-4.935058594,463,-478,390
9429,-2.954101563,-3.824462891,-4.925537109,456,-510,376
9434,-2.946044922,-3.82421875,-4.930664063,458,-491,397
9439,-2.947265625,-3.823730469,-4.931396484,452,-464,377
9444,-2.946289063,-3.82421875,-4.935302734,460,-502,396
9449,-2.947265625,-3.826904297,-4.934814453,477,-463,353
9454,-2.947021484,-3.822753906,-4.937255859,467,-502,383
9459,-2.947998047,-3.824707031,-4.93359375,464,-498,364
9464,-2.9453125,-3.825683594,-4.928222656,442,-481,364
9469,-2.949951172,-3.825683594,-4.931152344,456,-504,376
9474,-2.950439453,-3.827880859,-4.930419922,456,-513,381
9479,-2.945068359,-3.827148438,-4.933349609,452,-485,374
9484,-2.944824219,-3.824951172,-4.931396484,469,-494,377
9489,-2.948974609,-3.821289063,-4.930908203,475,-475,365
9494,-2.947753906,-3.827148438,-4.926025391,450,-476,374
9500,-2.945800781,-3.823486328,-4.9375,458,-497,361
9505,-2.94921875,-3.826171875,-4.929199219,458,-463,368
9510,-2.947998047,-3.824707031,-4.934326172,454,-481,366
9515,-2.947265625,-3.822753906,-4.930175781,455,-487,373
9520,-2.947509766,-3.824951172,-4.932373047,463,-494,369
9525,-2.948730469,-3.82421875,-4.939208984,473,-468,371
9530,-2.951660156,-3.824462891,-4.934814453,461,-489,383
9535,-2.948242188,-3.825195313,-4.937255859,472,-496,363
9540,-2.946533203,-3.824707031,-4.934326172,479,-496,362
9545,-2.947998047,-3.822265625,-4.931396484,457,-475,395
9550,-2.947021484,-3.825195313,-4.934814453,468,-525,367
9555,-2.946777344,-3.823242188,-4.933837891,450,-463,375
9560,-2.952392578,-3.821533203,-4.925048828,448,-484,392
9565,-2.946777344,-3.829101563,-4.939697266,470,-484,393
9570,-2.950439453,-3.821289063,-4.934326172,460,-492,385
9575,-2.947265625,-3.822265625,-4.930908203,474,-464,373
9580,-2.947265625,-3.822265625,-4.9296875,440,-484,347
9585,-2.946777344,-3.826171875,-4.934082031,446,-479,363
9590,-2.946533203,-3.822509766,-4.933837891,461,-487,359
9595,-2.944335938,-3.825683594,-4.937011719,458,-491,374
9600,-2.947021484,-3.82421875,-4.933105469,457,-481,374
9605,-2.946289063,-3.822753906,-4.935546875,476,-478,372
9610,-2.947021484,-3.823486328,-4.934326172,438,-463,389
9615,-2.949462891,-3.824707031,-4.9296875,470,-494,358
9620,-2.944335938,-3.823486328,-4.940429688,466,-494,368
9625,-2.946533203,-3.82421875,-4.932373047,463,-507,365
9630,-2.947998047,-3.823974609,-4.932617188,465,-473,352
9636,-2.946533203,-3.823974609,-4.935791016,462,-481,396
9641,-2.944824219,-3.824951172,-4.934326172,449,-496,390
9646,-2.947509766,-3.822998047,-4.929931641,474,-496,346
9651,-2.950927734,-3.822509766,-4.932861328,461,-475,378
9656,-2.947021484,-3.826171875,-4.936523438,461,-473,367
9661,-2.94921875,-3.825195313,-4.934082031,476,-487,379
9666,-2.949951172,-3.823486328,-4.933837891,471,-493,382
9671,-2.949707031,-3.82421875,-4.934326172,444,-483,393
9676,-2.947021484,-3.826904297,-4.933349609,478,-504,390
9681,-2.946777344,-3.824707031,-4.934326172,462,-487,353
9686,-2.9453125,-3.825683594,-4.931396484,440,-479,339
9691,-2.946289063,-3.826660156,-4.936279297,473,-485,365
9696,-2.947265625,-3.826171875,-4.926513672,465,-493,372
9701,-2.948974609,-3.825927734,-4.93359375,442,-503,381
9706,-2.944580078,-3.822265625,-4.926757813,464,-480,367
9711,-2.948242188,-3.827636719,-4.934814453,459,-484,387
9716,-2.948242188,-3.825439453,-4.940429688,477,-463,367
9721,-2.949707031,-3.826660156,-4.932373047,475,-472,393
9726,-2.948486328,-3.82421875,-4.935791016,477,-497,371
9731,-2.948730469,-3.826171875,-4.937988281,480,-484,359
9736,-2.947509766,-3.827880859,-4.933105469,454,-469,371
9741,-2.947509766,-3.827880859,-4.936767578,447,-505,343
9746,-2.945800781,-3.828613281,-4.937255859,457,-484,364
9751,-2.9453125,-3.827636719,-4.937988281,453,-508,367
9756,-2.947265625,-3.822998047,-4.936767578,461,-492,383
9761,-2.950195313,-3.823730469,-4.933837891,447,-488,362
9766,-2.944580078,-3.820800781,-4.932128906,478,-481,366
9772,-2.948974609,-3.824707031,-4.928710938,458,-493,372
9777,-2.947021484,-3.823242188,-4.935791016,465,-494,382
9782,-2.948486328,-3.833007813,-4.936523438,448,-485,382
9787,-2.948730469,-3.826171875,-4.933105469,486,-488,397
9792,-2.945800781,-3.828369141,-4.929443359,446,-486,379
9797,-2.948242188,-3.823974609,-4.929443359,469,-505,390
9802,-2.949707031,-3.825683594,-4.932128906,446,-484,375
9807,-2.949707031,-3.826171875,-4.934814453,456,-477,366
9812,-2.947021484,-3.825195313,-4.934082031,468,-481,371
9817,-2.951171875,-3.827636719,-4.935791016,480,-483,379
9822,-2.948730469,-3.823974609,-4.937988281,458,-492,352
9827,-2.944580078,-3.823730469,-4.933837891,471,-485,368
9832,-2.945068359,-3.823486328,-4.936035156,455,-460,349
9837,-2.950195313,-3.826171875,-4.935058594,452,-484,360
9842,-2.950439453,-3.824951172,-4.9375,479,-487,384
9847,-2.946044922,-3.825195313,-4.939208984,467,-486,338
9852,-2.950439453,-3.830322266,-4.928222656,471,-490,381
9857,-2.946533203,-3.82421875,-4.934326172,461,-464,356
9862,-2.946777344,-3.822753906,-4.932373047,478,-483,359
9867,-2.949707031,-3.826904297,-4.938720703,461,-480,366
9872,-2.948974609,-3.82421875,-4.931396484,454,-499,375
9877,-2.9453125,-3.826171875,-4.935791016,464,-502,362
9882,-2.944335938,-3.826416016,-4.932861328,451,-472,401
9887,-2.946289063,-3.823242188,-4.935791016,447,-463,382
9892,-2.946533203,-3.822265625,-4.937255859,455,-495,374
9897,-2.949462891,-3.82421875,-4.937255859,463,-466,367
9902,-2.948242188,-3.825439453,-4.936767578,470,-486,383
9908,-2.947753906,-3.824707031,-4.934814453,473,-489,377
9913,-2.948974609,-3.827880859,-4.932373047,449,-506,383
9918,-2.948242188,-3.82421875,-4.940185547,429,-496,382
9923,-2.94921875,-3.823974609,-4.938232422,464,-489,362
9928,-2.945068359,-3.828857422,-4.940185547,458,-483,361
9933,-2.949951172,-3.821289063,-4.936523438,443,-499,378
9938,-2.9453125,-3.824707031,-4.937255859,455,-472,373
9943,-2.950195313,-3.829345703,-4.936035156,461,-473,375
9948,-2.948486328,-3.826904297,-4.929931641,449,-466,366
9953,-2.947021484,-3.825439453,-4.931884766,449,-487,385
9958,-2.944580078,-3.827636719,-4.930419922,466,-486,363
9963,-2.947021484,-3.826171875,-4.931396484,481,-490,354
9968,-2.947021484,-3.825439453,-4.931640625,462,-480,370
9973,-2.94921875,-3.822753906,-4.934082031,443,-468,370
9978,-2.946044922,-3.823242188,-4.9375,473,-485,379
9983,-2.949707031,-3.823486328,-4.93359375,475,-457,359
9988,-2.946289063,-3.827880859,-4.936767578,452,-492,386
9993,-2.950927734,-3.826416016,-4.932861328,452,-484,352
9998,-2.9453125,-3.826416016,-4.938720703,466,-483,400
10003,-2.947998047,-3.825439453,-4.935546875,451,-479,383
10008,-2.949951172,-3.825683594,-4.93359375,468,-493,372
10013,-2.947753906,-3.829101563,-4.930419922,448,-480,388
10018,-2.947021484,-3.827392578,-4.936035156,478,-496,379
10023,-2.9453125,-3.819580078,-4.932617188,468,-494,354
10028,-2.945068359,-3.827880859,-4.937011719,463,-502,365
10033,-2.949707031,-3.825439453,-4.931884766,479,-497,386
10038,-2.949462891,-3.822753906,-4.937744141,460,-482,373
10044,-2.948974609,-3.823974609,-4.932861328,439,-473,378
10049,-2.945556641,-3.823730469,-4.934814453,453,-491,350
10054,-2.949462891,-3.824707031,-4.922363281,452,-492,358
10059,-2.950195313,-3.824462891,-4.936279297,483,-462,369
10064,-2.949462891,-3.823974609,-4.943359375,472,-477,388
10069,-2.948486328,-3.821777344,-4.927490234,459,-485,364
10074,-2.953613281,-3.823486328,-4.933105469,458,-481,375
10079,-2.947509766,-3.827392578,-4.936279297,461,-494,386
10084,-2.947753906,-3.823974609,-4.932373047,442,-479,387
10089,-2.947265625,-3.826904297,-4.937988281,463,-498,369
10094,-2.94921875,-3.828369141,-4.934814453,445,-493,368
10099,-2.945068359,-3.827392578,-4.935058594,457,-509,390
10104,-2.94921875,-3.825927734,-4.937255859,458,-476,393
10109,-2.947753906,-3.827636719,-4.931152344,442,-493,381
10114,-2.949462891,-3.827636719,-4.941894531,457,-501,374
10119,-2.946289063,-3.829101563,-4.935302734,472,-497,361
10124,-2.947021484,-3.8203125,-4.933837891,465,-500,364
10129,-2.947753906,-3.823974609,-4.931640625,466,-493,365
10134,-2.949462891,-3.823242188,-4.937988281,460,-479,364
10139,-2.950927734,-3.822753906,-4.938964844,454,-497,372
10144,-2.947509766,-3.824707031,-4.931396484,478,-492,388
10149,-2.948486328,-3.82421875,-4.937255859,444,-488,388
10154,-2.951171875,-3.823486328,-4.936523438,463,-492,386
10159,-2.951660156,-3.826660156,-4.935058594,470,-486,358
10164,-2.946777344,-3.827636719,-4.930419922,468,-489,385
10169,-2.949707031,-3.82421875,-4.927246094,454,-481,378
10174,-2.946533203,-3.824707031,-4.934814453,460,-470,381
10180,-2.949462891,-3.828613281,-4.931396484,451,-481,374
10185,-2.947021484,-3.822753906,-4.927978516,441,-501,369
10190,-2.946533203,-3.821289063,-4.934570313,454,-478,379
10195,-2.951416016,-3.822509766,-4.930419922,455,-482,367
10200,-2.944091797,-3.824707031,-4.936767578,455,-481,351
10205,-2.950195313,-3.824951172,-4.935546875,478,-484,372
10210,-2.944091797,-3.826416016,-4.931396484,427,-484,376
10215,-2.947753906,-3.82421875,-4.941162109,453,-481,358
10220,-2.946533203,-3.825927734,-4.937988281,461,-469,362
10225,-2.949951172,-3.822021484,-4.936279297,444,-475,349
10230,-2.947509766,-3.822998047,-4.933105469,457,-496,349
10235,-2.945556641,-3.822021484,-4.936035156,461,-458,359
10240,-2.947509766,-3.826904297,-4.935302734,457,-459,367
10245,-2.948242188,-3.827148438,-4.940429688,459,-482,372
10250,-2.947998047,-3.824951172,-4.930419922,467,-471,373
10255,-2.949462891,-3.822998047,-4.930908203,450,-498,385
10260,-2.948486328,-3.82421875,-4.9375,446,-459,388
10265,-2.94921875,-3.822021484,-4.935546875,477,-482,367
10270,-2.954345703,-3.823242188,-4.937744141,468,-464,369
10275,-2.948974609,-3.825927734,-4.933105469,471,-482,364
10280,-2.94921875,-3.829345703,-4.931396484,472,-471,357
10285,-2.949951172,-3.826660156,-4.933349609,444,-477,372
10290,-2.944580078,-3.828125,-4.936523438,466,-490,342
10295,-2.944335938,-3.826660156,-4.930419922,466,-476,368
10300,-2.946289063,-3.824462891,-4.935302734,450,-479,381
10305,-2.952880859,-3.821289063,-4.930664063,464,-489,390
10310,-2.947509766,-3.822265625,-4.933349609,443,-467,383
10316,-2.947509766,-3.824462891,-4.931640625,455,-484,367
10321,-2.947998047,-3.825439453,-4.932617188,449,-491,379
10326,-2.949707031,-3.823242188,-4.932861328,484,-490,366
10331,-2.947265625,-3.828369141,-4.941894531,467,-499,356
10336,-2.943115234,-3.825439453,-4.935058594,467,-481,371
10341,-2.943115234,-3.822509766,-4.938232422,449,-490,381
10346,-2.942626953,-3.821289063,-4.932373047,443,-483,372
10351,-2.946289063,-3.823730469,-4.936279297,459,-487,356
10356,-2.948486328,-3.827148438,-4.933105469,464,-483,385
10361,-2.944580078,-3.823730469,-4.932617188,453,-490,363
10366,-2.949462891,-3.825439453,-4.936523438,463,-459,365
10371,-2.951171875,-3.822265625,-4.934570313,469,-444,385
10376,-2.945068359,-3.82421875,-4.937744141,455,-502,392
10381,-2.950195313,-3.827148438,-4.93359375,472,-497,373
10386,-2.94921875,-3.825927734,-4.936035156,460,-492,363
10391,-2.946533203,-3.828125,-4.931396484,447,-498,384
10396,-2.948730469,-3.827148438,-4.93359375,470,-506,362
10401,-2.944824219,-3.82421875,-4.927490234,500,-448,371
10406,-2.946533203,-3.828857422,-4.931396484,475,-470,375
10411,-2.94921875,-3.8203125,-4.929931641,439,-496,379
10416,-2.952636719,-3.827880859,-4.92578125,450,-486,377
10421,-2.947998047,-3.822509766,-4.932128906,460,-465,374
10426,-2.942382813,-3.824707031,-4.935791016,442,-488,387
10431,-2.946777344,-3.823974609,-4.928710938,454,-491,376
10436,-2.951904297,-3.825195313,-4.923828125,455,-482,379
10441,-2.946533203,-3.822265625,-4.934326172,483,-478,372
10446,-2.945556641,-3.823730469,-4.932373047,463,-517,386
10452,-2.947753906,-3.825927734,-4.932128906,452,-480,356
10457,-2.951171875,-3.825439453,-4.941650391,441,-512,373
10462,-2.946044922,-3.83203125,-4.936523438,470,-492,368
10467,-2.94921875,-3.826171875,-4.933105469,483,-482,357
10472,-2.946533203,-3.823974609,-4.930175781,468,-498,400
10477,-2.945800781,-3.825439453,-4.936279297,462,-493,388
10482,-2.948242188,-3.828369141,-4.934082031,457,-496,371
10487,-2.948242188,-3.82421875,-4.930175781,458,-470,380
10492,-2.948242188,-3.829345703,-4.926757813,470,-489,355
10497,-2.948730469,-3.82421875,-4.933105469,483,-479,356
10502,-2.947998047,-3.822021484,-4.929199219,488,-487,376
10507,-2.944580078,-3.825439453,-4.94140625,469,-482,356
10512,-2.947753906,-3.826904297,-4.936035156,444,-492,372
10517,-2.946533203,-3.824707031,-4.933349609,455,-491,366
10522,-2.948730469,-3.825195313,-4.932617188,452,-480,354
10527,-2.941162109,-3.825195313,-4.944824219,461,-487,368
10532,-2.947021484,-3.824707031,-4.929199219,466,-484,373
10537,-2.949707031,-3.820556641,-4.927734375,453,-474,380
10542,-2.948486328,-3.822509766,-4.928710938,480,-498,369
10547,-2.945800781,-3.824951172,-4.935302734,453,-497,355
10552,-2.949462891,-3.822753906,-4.935791016,469,-483,390
10557,-2.948242188,-3.826904297,-4.935546875,453,-492,351
10562,-2.945800781,-3.825683594,-4.936035156,468,-497,362
10567,-2.950439453,-3.824951172,-4.937255859,452,-485,349
10572,-2.947265625,-3.822998047,-4.937744141,475,-494,368
10577,-2.950195313,-3.827392578,-4.933349609,437,-486,365
10582,-2.946533203,-3.825439453,-4.938476563,466,-472,384
10588,-2.947265625,-3.827636719,-4.9296875,446,-493,368
10593,-2.952392578,-3.826171875,-4.936035156,485,-483,359
10598,-2.943603516,-3.826416016,-4.938720703,491,-495,375
10603,-2.948486328,-3.822509766,-4.939697266,476,-486,366
10608,-2.950439453,-3.826171875,-4.936523438,445,-479,374
10613,-2.950195313,-3.822021484,-4.936035156,465,-485,373
10618,-2.950927734,-3.830566406,-4.932373047,451,-476,370
10623,-2.948242188,-3.829345703,-4.931396484,454,-482,356
10628,-2.946044922,-3.826416016,-4.931884766,459,-490,371
10633,-2.948486328,-3.823730469,-4.928955078,480,-475,363
10638,-2.943847656,-3.826660156,-4.940917969,460,-477,373
10643,-2.944580078,-3.825927734,-4.937255859,459,-489,354
10648,-2.949707031,-3.825439453,-4.937988281,465,-488,376
10653,-2.94921875,-3.826171875,-4.938476563,446,-478,378
10658,-2.948730469,-3.823486328,-4.932617188,485,-484,385
10663,-2.9453125,-3.827148438,-4.933105469,464,-483,367
10668,-2.945556641,-3.824707031,-4.929931641,481,-494,353
