Time,Acc_X,Acc_Y,Acc_Z,Gyro_X,Gyro_Y,Gyro_Z
5,-2.957275391,-2.843994141,-5.941162109,490,-466,308
10,-2.962158203,-2.841064453,-5.947265625,490,-481,334
15,-2.957763672,-2.843261719,-5.946533203,489,-492,310
20,-2.959960938,-2.844726563,-5.949707031,512,-508,322
25,-2.959228516,-2.845214844,-5.943847656,510,-496,298
30,-2.954345703,-2.847167969,-5.948486328,486,-510,322
35,-2.955566406,-2.846679688,-5.951660156,480,-509,324
40,-2.956787109,-2.847900391,-5.9453125,502,-490,305
45,-2.958740234,-2.845703125,-5.953125,488,-486,316
50,-2.956542969,-2.845458984,-5.949462891,495,-483,317
55,-2.956542969,-2.844238281,-5.947265625,480,-502,313
60,-2.956542969,-2.845703125,-5.943847656,510,-485,307
65,-2.956542969,-2.846435547,-5.953369141,487,-487,314
70,-2.958251953,-2.848144531,-5.944580078,493,-486,331
75,-2.958496094,-2.844482422,-5.951904297,486,-500,322
80,-2.953369141,-2.845458984,-5.950195313,494,-470,301
85,-2.95703125,-2.847900391,-5.950927734,478,-481,337
90,-2.958251953,-2.846435547,-5.944335938,480,-484,307
95,-2.957519531,-2.842773438,-5.959472656,486,-486,342
100,-2.954833984,-2.844238281,-5.953369141,484,-472,325
105,-2.961181641,-2.845703125,-5.946289063,495,-480,327
110,-2.958496094,-2.844482422,-5.944824219,483,-490,315
115,-2.960205078,-2.849365234,-5.952392578,491,-486,319
120,-2.956787109,-2.843261719,-5.948242188,506,-475,332
126,-2.958496094,-2.845947266,-5.942626953,484,-485,310
131,-2.959960938,-2.843261719,-5.952880859,490,-460,328
136,-2.959472656,-2.844238281,-5.947753906,490,-478,307
141,-2.958007813,-2.843017578,-5.956054688,481,-471,330
146,-2.955322266,-2.842773438,-5.947265625,512,-471,332
151,-2.959960938,-2.843505859,-5.955322266,510,-500,313
156,-2.959716797,-2.843261719,-5.950439453,514,-506,328
161,-2.959716797,-2.845703125,-5.947753906,471,-471,299
166,-2.957275391,-2.842529297,-5.946289063,480,-478,336
171,-2.957275391,-2.844482422,-5.942871094,478,-498,318
176,-2.959472656,-2.841552734,-5.947509766,504,-476,335
181,-2.958007813,-2.845214844,-5.9453125,507,-496,322
186,-2.958251953,-2.846923828,-5.950683594,492,-493,309
191,-2.959228516,-2.843994141,-5.946044922,488,-479,308
196,-2.955566406,-2.846191406,-5.946289063,485,-491,321
201,-2.956787109,-2.844482422,-5.950439453,524,-502,306
206,-2.957763672,-2.846435547,-5.947753906,484,-494,322
211,-2.95703125,-2.845703125,-5.948242188,473,-490,323
216,-2.957763672,-2.844482422,-5.946044922,487,-484,308
221,-2.957275391,-2.843994141,-5.939697266,486,-481,334
226,-2.956298828,-2.843261719,-5.947509766,488,-493,335
231,-2.957763672,-2.841308594,-5.945556641,506,-477,321
236,-2.957763672,-2.845703125,-5.953613281,491,-481,294
241,-2.959228516,-2.842773438,-5.950683594,497,-474,334
246,-2.961425781,-2.84375,-5.952636719,502,-482,303
251,-2.956787109,-2.843261719,-5.947265625,483,-489,334
256,-2.957275391,-2.841796875,-5.946533203,498,-475,305
262,-2.955810547,-2.843994141,-5.946533203,469,-472,320
267,-2.959960938,-2.842773438,-5.945800781,490,-462,329
272,-2.960693359,-2.844726563,-5.947509766,499,-499,319
277,-2.958251953,-2.845703125,-5.946533203,492,-486,341
282,-2.959228516,-2.842285156,-5.945800781,502,-482,327
287,-2.961669922,-2.845214844,-5.947021484,498,-480,324
292,-2.958984375,-2.845703125,-5.949707031,489,-506,289
297,-2.959960938,-2.846679688,-5.944335938,485,-485,315
302,-2.958007813,-2.846191406,-5.951660156,480,-483,305
307,-2.958007813,-2.845214844,-5.950683594,503,-485,304
312,-2.955810547,-2.844970703,-5.951660156,480,-478,312
317,-2.955810547,-2.843261719,-5.942138672,500,-496,304
322,-2.956787109,-2.842041016,-5.950683594,466,-501,314
327,-2.957275391,-2.843261719,-5.950683594,479,-476,322
332,-2.9609375,-2.845703125,-5.944824219,490,-462,302
337,-2.958740234,-2.845703125,-5.948974609,486,-483,320
342,-2.956542969,-2.843017578,-5.946533203,512,-479,309
347,-2.957519531,-2.843261719,-5.953369141,502,-461,307
352,-2.958496094,-2.843505859,-5.943359375,513,-474,332
357,-2.956298828,-2.849365234,-5.945068359,489,-478,321
362,-2.958740234,-2.844482422,-5.94140625,473,-486,298
367,-2.958007813,-2.841796875,-5.944335938,490,-497,310
372,-2.955322266,-2.842529297,-5.945800781,479,-477,331
377,-2.955078125,-2.843261719,-5.948974609,506,-475,313
382,-2.957275391,-2.847167969,-5.943603516,491,-510,324
387,-2.955078125,-2.845703125,-5.943359375,493,-466,328
392,-2.958007813,-2.844970703,-5.951416016,504,-493,338
398,-2.956054688,-2.848144531,-5.940429688,490,-476,309
403,-2.959716797,-2.847900391,-5.946289063,499,-472,312
408,-2.953613281,-2.844726563,-5.947265625,506,-483,323
413,-2.960205078,-2.849365234,-5.948486328,481,-511,324
418,-2.95703125,-2.846679688,-5.947509766,473,-490,307
423,-2.956054688,-2.843505859,-5.948486328,480,-503,323
428,-2.958496094,-2.844970703,-5.950439453,480,-507,323
433,-2.954101563,-2.845458984,-5.942138672,484,-478,323
438,-2.962890625,-2.842773438,-5.946044922,498,-497,346
443,-2.956787109,-2.847167969,-5.9453125,492,-487,318
448,-2.959716797,-2.843017578,-5.947998047,494,-493,337
453,-2.958251953,-2.848632813,-5.959228516,480,-490,310
458,-2.957763672,-2.846435547,-5.947509766,485,-498,318
463,-2.960693359,-2.842285156,-5.9453125,492,-491,344
468,-2.958496094,-2.846435547,-5.938964844,470,-497,337
473,-2.959716797,-2.845703125,-5.944580078,496,-505,307
478,-2.957519531,-2.843994141,-5.947509766,503,-479,316
483,-2.952392578,-2.845703125,-5.947753906,479,-480,316
488,-2.961669922,-2.840820313,-5.937988281,490,-495,330
493,-2.957519531,-2.848876953,-5.944091797,514,-500,311
498,-2.956298828,-2.840576172,-5.942626953,497,-487,315
503,-2.958740234,-2.842773438,-5.942871094,505,-467,307
508,-2.955810547,-2.842285156,-5.943115234,485,-482,336
513,-2.957519531,-2.84375,-5.949462891,512,-516,322
518,-2.955566406,-2.843017578,-5.942871094,466,-481,312
523,-2.958007813,-2.845214844,-5.940673828,497,-517,303
528,-2.955810547,-2.845947266,-5.945556641,501,-482,325
534,-2.957763672,-2.842773438,-5.948242188,500,-497,336
539,-2.958496094,-2.848876953,-5.943847656,515,-479,310
544,-2.956787109,-2.843017578,-5.944335938,500,-460,321
549,-2.958740234,-2.84375,-5.947753906,511,-488,319
554,-2.956298828,-2.844970703,-5.943115234,494,-491,325
559,-2.959472656,-2.846923828,-5.94921875,504,-505,342
564,-2.955322266,-2.847167969,-5.952392578,479,-480,322
569,-2.959472656,-2.841308594,-5.946533203,488,-478,307
574,-2.959960938,-2.84375,-5.947998047,477,-496,331
579,-2.961181641,-2.842285156,-5.946777344,496,-474,316
584,-2.961914063,-2.841796875,-5.946533203,501,-494,329
589,-2.956542969,-2.843505859,-5.948486328,481,-468,301
594,-2.957275391,-2.844482422,-5.945556641,506,-494,309
599,-2.961425781,-2.843994141,-5.942626953,512,-481,344
604,-2.957763672,-2.845703125,-5.947265625,492,-488,335
609,-2.960205078,-2.847412109,-5.944824219,503,-496,324
614,-2.956054688,-2.845947266,-5.942382813,510,-500,330
619,-2.959228516,-2.845703125,-5.940429688,490,-488,298
624,-2.960693359,-2.849365234,-5.947021484,496,-474,348
629,-2.955322266,-2.843505859,-5.942626953,469,-490,321
634,-2.959472656,-2.845214844,-5.942138672,474,-471,322
639,-2.957763672,-2.844482422,-5.937255859,498,-501,339
644,-2.956054688,-2.841552734,-5.948730469,494,-464,323
649,-2.953613281,-2.842285156,-5.948730469,494,-477,302
654,-2.957763672,-2.844726563,-5.942626953,506,-481,325
659,-2.956787109,-2.844970703,-5.942138672,498,-491,314
664,-2.956787109,-2.845214844,-5.948730469,481,-475,323
670,-2.956054688,-2.847167969,-5.944580078,483,-490,312
675,-2.959472656,-2.849365234,-5.941162109,492,-501,318
680,-2.958740234,-2.841796875,-5.949707031,469,-498,322
685,-2.955810547,-2.844238281,-5.947998047,484,-482,343
690,-2.958251953,-2.839355469,-5.954833984,492,-487,329
695,-2.958251953,-2.841064453,-5.954345703,479,-466,319
700,-2.957275391,-2.844482422,-5.945556641,487,-492,315
705,-2.95703125,-2.843017578,-5.949462891,507,-472,314
710,-2.956787109,-2.842529297,-5.949951172,508,-491,300
715,-2.958251953,-2.845458984,-5.940673828,486,-494,324
720,-2.956054688,-2.847900391,-5.951416016,479,-468,328
725,-2.960693359,-2.847900391,-5.947998047,472,-484,311
730,-2.959228516,-2.845947266,-5.942871094,486,-494,309
735,-2.956542969,-2.846435547,-5.948974609,484,-485,313
740,-2.957763672,-2.840087891,-5.944335938,492,-474,311
745,-2.955078125,-2.841552734,-5.944335938,498,-502,317
750,-2.957519531,-2.84375,-5.947509766,475,-478,320
755,-2.960449219,-2.840332031,-5.955566406,501,-477,328
760,-2.95703125,-2.848632813,-5.951416016,504,-474,324
765,-2.956054688,-2.844238281,-5.952880859,512,-483,326
770,-2.957275391,-2.845458984,-5.944824219,480,-478,312
775,-2.958007813,-2.844970703,-5.950439453,481,-476,325
780,-2.956787109,-2.845214844,-5.951416016,482,-504,306
785,-2.955810547,-2.844726563,-5.940429688,468,-501,320
790,-2.958740234,-2.843994141,-5.940673828,507,-482,311
795,-2.960205078,-2.844482422,-5.945068359,486,-482,319
800,-2.959472656,-2.842773438,-5.950195313,495,-489,343
806,-2.959472656,-2.844970703,-5.939208984,502,-491,320
811,-2.955810547,-2.841552734,-5.952148438,488,-470,326
816,-2.959228516,-2.844970703,-5.947021484,501,-504,323
821,-2.958496094,-2.847167969,-5.944824219,497,-484,325
826,-2.959472656,-2.843994141,-5.950439453,483,-486,341
831,-2.95703125,-2.848388672,-5.949951172,496,-480,303
836,-2.958007813,-2.846191406,-5.938720703,490,-492,307
841,-2.957763672,-2.841064453,-5.942871094,483,-503,328
846,-2.958496094,-2.843994141,-5.944824219,508,-490,319
851,-2.957763672,-2.84765625,-5.94921875,479,-468,311
856,-2.957519531,-2.844238281,-5.950927734,492,-478,336
861,-2.955810547,-2.844238281,-5.949951172,509,-466,312
866,-2.957519531,-2.848144531,-5.948242188,474,-491,331
871,-2.958984375,-2.846435547,-5.948730469,496,-473,331
876,-2.958984375,-2.846679688,-5.952148438,485,-495,301
881,-2.955810547,-2.846923828,-5.943115234,486,-516,307
886,-2.958007813,-2.843261719,-5.945068359,489,-499,318
891,-2.959228516,-2.846435547,-5.953369141,500,-493,320
896,-2.954345703,-2.843017578,-5.950439453,533,-490,340
901,-2.960205078,-2.843994141,-5.946044922,497,-477,313
906,-2.959472656,-2.846923828,-5.943847656,512,-488,337
911,-2.958007813,-2.846435547,-5.94921875,510,-489,309
916,-2.958007813,-2.846191406,-5.940185547,498,-480,341
921,-2.959228516,-2.843994141,-5.951171875,494,-476,309
926,-2.956787109,-2.844238281,-5.947753906,480,-463,317
931,-2.957763672,-2.842285156,-5.955810547,494,-494,314
936,-2.958740234,-2.848632813,-5.941650391,479,-509,297
942,-2.953613281,-2.845947266,-5.945800781,475,-461,324
947,-2.957763672,-2.844726563,-5.951171875,490,-498,341
952,-2.958251953,-2.844238281,-5.949462891,501,-499,316
957,-2.957763672,-2.83984375,-5.950683594,503,-463,326
962,-2.959472656,-2.845458984,-5.947998047,497,-485,319
967,-2.959716797,-2.841308594,-5.948730469,503,-517,327
972,-2.957519531,-2.843994141,-5.944335938,472,-487,325
977,-2.957763672,-2.841552734,-5.947265625,474,-492,288
982,-2.955322266,-2.846191406,-5.947998047,490,-517,308
987,-2.961914063,-2.843261719,-5.951171875,489,-498,322
992,-2.957275391,-2.841796875,-5.943847656,479,-477,336
997,-2.959960938,-2.845458984,-5.946777344,462,-494,283
1002,-2.962402344,-2.846435547,-5.947021484,502,-462,310
1007,-2.959716797,-2.843261719,-5.947021484,493,-483,278
1012,-2.9609375,-2.84375,-5.954833984,498,-471,325
1017,-2.956542969,-2.845703125,-5.945800781,481,-479,323
1022,-2.959472656,-2.842529297,-5.951904297,486,-483,311
1027,-2.954833984,-2.842773438,-5.947998047,503,-480,333
1032,-2.959472656,-2.843261719,-5.946533203,473,-480,312
1037,-2.957275391,-2.843994141,-5.949951172,479,-522,317
1042,-2.958251953,-2.842529297,-5.951416016,489,-471,285
1047,-2.958007813,-2.843261719,-5.942626953,491,-504,325
1052,-2.956542969,-2.846435547,-5.949951172,502,-480,302
1057,-2.956298828,-2.844970703,-5.951171875,497,-500,319
1062,-2.955810547,-2.843261719,-5.944824219,481,-494,311
1067,-2.958984375,-2.846679688,-5.944335938,486,-479,338
1072,-2.957519531,-2.840576172,-5.947021484,490,-473,315
1078,-2.954589844,-2.844238281,-5.944824219,506,-500,327
1083,-2.957763672,-2.843505859,-5.948242188,487,-481,310
1088,-2.959228516,-2.845214844,-5.945556641,482,-495,312
1093,-2.960693359,-2.844970703,-5.948242188,472,-497,330
1098,-2.955078125,-2.843261719,-5.94921875,481,-482,311
1103,-2.961669922,-2.845703125,-5.950195313,487,-508,316
1108,-2.959228516,-2.845703125,-5.947998047,495,-478,315
1113,-2.959472656,-2.847412109,-5.952880859,481,-481,334
1118,-2.954589844,-2.842529297,-5.943603516,510,-479,299
1123,-2.95703125,-2.843505859,-5.946289063,481,-487,309
1128,-2.959472656,-2.846923828,-5.949707031,506,-493,317
1133,-2.954833984,-2.849609375,-5.951660156,490,-491,323
1138,-2.959960938,-2.848388672,-5.943115234,474,-484,341
1143,-2.954589844,-2.845947266,-5.947021484,484,-489,313
1148,-2.958496094,-2.844726563,-5.947509766,475,-494,313
1153,-2.955566406,-2.844238281,-5.942382813,500,-501,312
1158,-2.958496094,-2.841552734,-5.953857422,489,-496,321
1163,-2.957519531,-2.843994141,-5.950195313,493,-488,320
1168,-2.959228516,-2.845703125,-5.948242188,475,-490,327
1173,-2.958984375,-2.842285156,-5.951904297,509,-496,329
1178,-2.95703125,-2.843994141,-5.950683594,494,-487,323
1183,-2.958496094,-2.846435547,-5.945068359,489,-511,305
1188,-2.958984375,-2.846435547,-5.954589844,491,-475,303
1193,-2.956787109,-2.846435547,-5.949462891,493,-473,318
1198,-2.95703125,-2.844482422,-5.949462891,465,-471,325
1203,-2.956542969,-2.844726563,-5.945800781,488,-459,328
1208,-2.958496094,-2.845214844,-5.944335938,473,-495,331
1214,-2.956787109,-2.840576172,-5.950683594,477,-502,333
1219,-2.958007813,-2.844482422,-5.947509766,517,-491,291
1224,-2.953857422,-2.844970703,-5.948730469,490,-507,321
1229,-2.956298828,-2.844726563,-5.944580078,493,-488,304
1234,-2.956787109,-2.843994141,-5.950927734,496,-481,330
1239,-2.958007813,-2.841796875,-5.941894531,487,-477,328
1244,-2.958984375,-2.847167969,-5.942871094,499,-475,328
1249,-2.954345703,-2.844970703,-5.9453125,495,-468,328
1254,-2.958496094,-2.84765625,-5.946044922,498,-486,338
1259,-2.959228516,-2.842285156,-5.950195313,495,-485,325
1264,-2.959716797,-2.84765625,-5.940673828,500,-505,299
1269,-2.956298828,-2.844726563,-5.941650391,491,-497,332
1274,-2.960693359,-2.842773438,-5.944580078,496,-481,307
1279,-2.961669922,-2.841552734,-5.948486328,491,-487,314
1284,-2.959716797,-2.845214844,-5.948242188,492,-492,319
1289,-2.958007813,-2.84375,-5.942382813,485,-507,301
1294,-2.958251953,-2.840576172,-5.953369141,483,-487,311
1299,-2.959960938,-2.845214844,-5.950683594,514,-466,315
1304,-2.9609375,-2.841308594,-5.946777344,499,-466,305
1309,-2.959716797,-2.842041016,-5.944091797,495,-509,306
1314,-2.954833984,-2.844970703,-5.945556641,500,-479,333
1319,-2.957519531,-2.84765625,-5.950927734,469,-489,285
1324,-2.961181641,-2.841552734,-5.943115234,502,-499,338
1329,-2.962402344,-2.846191406,-5.942138672,510,-465,311
1334,-2.958740234,-2.84765625,-5.945068359,474,-475,324
1339,-2.958007813,-2.847412109,-5.944580078,512,-474,319
1344,-2.957275391,-2.845458984,-5.951904297,481,-482,316
1350,-2.957519531,-2.843017578,-5.946777344,490,-490,328
1355,-2.958496094,-2.844970703,-5.947509766,488,-490,306
1360,-2.958251953,-2.843261719,-5.952392578,489,-476,312
1365,-2.956298828,-2.845458984,-5.944824219,491,-493,313
1370,-2.956054688,-2.84375,-5.946044922,501,-505,306
1375,-2.955810547,-2.842773438,-5.947021484,502,-491,325
1380,-2.956787109,-2.842773438,-5.944091797,502,-471,319
1385,-2.956054688,-2.849365234,-5.942138672,506,-465,320
1390,-2.957519531,-2.846923828,-5.948974609,501,-453,321
1395,-2.954833984,-2.843505859,-5.955078125,500,-488,322
1400,-2.957275391,-2.846923828,-5.948974609,511,-490,344
1405,-2.95703125,-2.844726563,-5.94140625,499,-482,321
1410,-2.957763672,-2.849121094,-5.947509766,482,-491,286
1415,-2.958984375,-2.845458984,-5.944091797,464,-490,335
1420,-2.95703125,-2.846923828,-5.94921875,495,-509,292
1425,-2.957275391,-2.841308594,-5.947998047,497,-456,311
1430,-2.957519531,-2.842285156,-5.944824219,487,-472,302
1435,-2.957519531,-2.842773438,-5.944091797,504,-475,316
1440,-2.956787109,-2.841796875,-5.947265625,517,-480,326
1445,-2.958007813,-2.843017578,-5.953613281,514,-481,340
1450,-2.958984375,-2.846191406,-5.94921875,499,-487,348
1455,-2.959960938,-2.844238281,-5.946289063,503,-482,328
1460,-2.951171875,-2.844726563,-5.952148438,500,-480,322
1465,-2.955322266,-2.851806641,-5.9453125,493,-504,326
1470,-2.958007813,-2.845947266,-5.948730469,476,-494,336
1475,-2.960449219,-2.845214844,-5.946044922,482,-485,300
1480,-2.960205078,-2.843017578,-5.948974609,481,-490,307
1486,-2.956542969,-2.843994141,-5.948974609,504,-482,323
1491,-2.955566406,-2.842529297,-5.952392578,506,-475,305
1496,-2.956787109,-2.847412109,-5.942382813,498,-465,310
1501,-2.958007813,-2.849121094,-5.948242188,491,-492,303
1506,-2.956054688,-2.845458984,-5.942138672,513,-490,316
1511,-2.958496094,-2.846923828,-5.947509766,494,-478,328
1516,-2.957519531,-2.842285156,-5.949707031,480,-467,324
1521,-2.961914063,-2.848632813,-5.947509766,502,-498,316
1526,-2.960449219,-2.844970703,-5.943359375,471,-478,328
1531,-2.958496094,-2.843505859,-5.94140625,485,-510,321
1536,-2.95703125,-2.843261719,-5.944335938,492,-474,296
1541,-2.958496094,-2.843261719,-5.943847656,477,-467,325
1546,-2.955810547,-2.847167969,-5.942138672,497,-511,317
1551,-2.956054688,-2.845458984,-5.948486328,506,-466,290
1556,-2.954345703,-2.844482422,-5.946533203,495,-481,327
1561,-2.958251953,-2.844726563,-5.94921875,486,-496,326
1566,-2.957275391,-2.847167969,-5.942871094,509,-464,314
1571,-2.955322266,-2.840820313,-5.951660156,488,-515,311
1576,-2.956054688,-2.841796875,-5.947753906,487,-494,315
1581,-2.962890625,-2.847900391,-5.942871094,495,-494,343
1586,-2.956298828,-2.844726563,-5.944091797,479,-467,317
1591,-2.957519531,-2.847900391,-5.948242188,486,-471,322
1596,-2.959228516,-2.845214844,-5.942382813,481,-481,327
1601,-2.960449219,-2.843994141,-5.948242188,491,-469,326
1606,-2.960205078,-2.844726563,-5.951171875,474,-489,318
1611,-2.957519531,-2.848144531,-5.947998047,491,-488,314
1616,-2.959228516,-2.844482422,-5.945556641,477,-471,306
1622,-2.952636719,-2.841552734,-5.943115234,477,-487,324
1627,-2.954345703,-2.847900391,-5.948974609,510,-492,315
1632,-2.959472656,-2.847167969,-5.948486328,480,-523,322
1637,-2.958984375,-2.840332031,-5.938720703,507,-469,333
1642,-2.955322266,-2.842529297,-5.946533203,501,-494,307
1647,-2.954589844,-2.849365234,-5.948242188,497,-474,307
1652,-2.959228516,-2.843505859,-5.949707031,505,-482,336
1657,-2.954589844,-2.843261719,-5.946777344,517,-483,317
1662,-2.958496094,-2.845703125,-5.953369141,495,-483,312
1667,-2.957275391,-2.843505859,-5.9453125,483,-483,305
1672,-2.959472656,-2.845947266,-5.9453125,492,-476,316
1677,-2.954833984,-2.844238281,-5.946044922,488,-479,305
1682,-2.958984375,-2.844726563,-5.9453125,477,-476,328
1687,-2.958496094,-2.842041016,-5.94140625,480,-496,328
1692,-2.958251953,-2.850585938,-5.945556641,506,-466,304
1697,-2.958251953,-2.844726563,-5.949951172,509,-466,297
1702,-2.955322266,-2.849121094,-5.949462891,498,-510,285
1707,-2.962402344,-2.846191406,-5.9453125,484,-498,316
1712,-2.955078125,-2.842529297,-5.952148438,498,-479,326
1717,-2.959472656,-2.844970703,-5.949462891,483,-488,331
1722,-2.956054688,-2.846435547,-5.943603516,487,-515,320
1727,-2.958496094,-2.841796875,-5.947998047,493,-490,304
1732,-2.955566406,-2.845947266,-5.943603516,497,-498,359
1737,-2.957519531,-2.848632813,-5.944335938,482,-496,316
1742,-2.958740234,-2.844238281,-5.945068359,501,-479,316
1747,-2.960449219,-2.845458984,-5.946533203,511,-482,334
1752,-2.958251953,-2.845947266,-5.946533203,493,-496,316
1758,-2.957519531,-2.843505859,-5.948242188,493,-504,304
1763,-2.956542969,-2.843017578,-5.954345703,500,-475,314
1768,-2.963623047,-2.845703125,-5.953125,489,-479,325
1773,-2.957763672,-2.848632813,-5.948730469,503,-485,332
1778,-2.956787109,-2.846435547,-5.943115234,494,-497,305
1783,-2.960693359,-2.840087891,-5.942138672,495,-504,330
1788,-2.959960938,-2.848144531,-5.947753906,501,-468,334
1793,-2.955810547,-2.845947266,-5.94921875,486,-489,313
1798,-2.960205078,-2.842285156,-5.946044922,507,-497,317
1803,-2.957519531,-2.845458984,-5.946777344,497,-479,312
1808,-2.956787109,-2.847900391,-5.947021484,497,-488,315
1813,-2.955322266,-2.846679688,-5.950439453,517,-466,322
1818,-2.958984375,-2.844970703,-5.946289063,504,-491,318
1823,-2.956542969,-2.842529297,-5.941894531,493,-478,307
1828,-2.955566406,-2.846679688,-5.946044922,509,-483,289
1833,-2.959472656,-2.841064453,-5.947021484,487,-493,325
1838,-2.959472656,-2.843505859,-5.948242188,496,-495,314
1843,-2.957763672,-2.844238281,-5.946289063,501,-480,331
1848,-2.957763672,-2.840820313,-5.947509766,505,-481,328
1853,-2.958251953,-2.844970703,-5.941894531,476,-455,341
1858,-2.957763672,-2.847412109,-5.948974609,476,-491,311
1863,-2.959960938,-2.850341797,-5.950195313,513,-480,338
1868,-2.959960938,-2.846923828,-5.943847656,491,-486,298
1873,-2.958007813,-2.845947266,-5.942138672,490,-498,300
1878,-2.956787109,-2.845214844,-5.949462891,489,-484,308
1883,-2.958984375,-2.845703125,-5.941894531,475,-515,326
1888,-2.957763672,-2.846435547,-5.941650391,498,-494,318
1893,-2.95703125,-2.847167969,-5.950683594,500,-507,316
1899,-2.961669922,-2.846191406,-5.942871094,487,-467,311
1904,-2.955810547,-2.844238281,-5.949951172,519,-457,295
1909,-2.958496094,-2.844238281,-5.947021484,514,-474,334
1914,-2.960449219,-2.844238281,-5.950439453,505,-484,326
1919,-2.959228516,-2.847900391,-5.944091797,480,-497,309
1924,-2.958007813,-2.845458984,-5.953125,500,-480,320
1929,-2.95703125,-2.847900391,-5.947265625,514,-499,346
1934,-2.956787109,-2.844726563,-5.946533203,470,-503,324
1939,-2.959716797,-2.845214844,-5.944580078,484,-520,329
1944,-2.958740234,-2.843505859,-5.943847656,486,-486,309
1949,-2.960693359,-2.845947266,-5.947021484,502,-478,318
1954,-2.958496094,-2.843994141,-5.944824219,475,-481,302
1959,-2.957275391,-2.845703125,-5.954833984,493,-474,310
1964,-2.958251953,-2.844238281,-5.950439453,501,-492,297
1969,-2.957763672,-2.844970703,-5.950927734,489,-493,319
1974,-2.957275391,-2.843994141,-5.950195313,477,-496,326
1979,-2.954833984,-2.844970703,-5.947021484,479,-499,319
1984,-2.956298828,-2.843505859,-5.946289063,470,-486,318
1989,-2.954345703,-2.840820313,-5.947021484,489,-491,305
1994,-2.959960938,-2.842773438,-5.946777344,468,-473,321
1999,-2.960205078,-2.844238281,-5.950927734,498,-509,330
2004,-2.959228516,-2.845214844,-5.949707031,501,-489,308
2009,-2.956054688,-2.841552734,-5.945800781,488,-471,302
2014,-2.960449219,-2.841552734,-5.946777344,505,-489,325
2019,-2.958251953,-2.844970703,-5.949707031,501,-509,306
2024,-2.960449219,-2.844238281,-5.948486328,506,-489,300
2029,-2.954345703,-2.847900391,-5.943847656,495,-494,317
2035,-2.957275391,-2.845458984,-5.944580078,469,-489,326
2040,-2.958984375,-2.844970703,-5.951660156,491,-495,336
2045,-2.953125,-2.844970703,-5.942138672,485,-502,328
2050,-2.956542969,-2.844726563,-5.940429688,477,-475,302
2055,-2.959472656,-2.849365234,-5.946777344,499,-496,315
2060,-2.956787109,-2.850341797,-5.953125,496,-485,309
2065,-2.958007813,-2.844970703,-5.951171875,507,-490,317
2070,-2.956787109,-2.84765625,-5.949462891,501,-505,311
2075,-2.960205078,-2.842285156,-5.945068359,477,-499,328
2080,-2.958251953,-2.844726563,-5.949951172,487,-475,326
2085,-2.960205078,-2.844238281,-5.947021484,486,-515,324
2090,-2.963134766,-2.846679688,-5.946777344,505,-471,343
2095,-2.956054688,-2.844726563,-5.944335938,489,-493,325
2100,-2.956054688,-2.848144531,-5.948486328,495,-472,327
2105,-2.957763672,-2.848632813,-5.940673828,515,-492,318
2110,-2.962402344,-2.842529297,-5.957275391,500,-488,299
2115,-2.959228516,-2.846679688,-5.943359375,501,-495,308
2120,-2.957519531,-2.847167969,-5.948974609,509,-490,312
2125,-2.95703125,-2.841552734,-5.950439453,496,-471,330
2130,-2.958007813,-2.843017578,-5.940429688,484,-497,334
2135,-2.955078125,-2.844238281,-5.951416016,465,-499,334
2140,-2.958496094,-2.843017578,-5.948974609,482,-486,312
2145,-2.957763672,-2.84765625,-5.954345703,489,-510,320
2150,-2.952880859,-2.850097656,-5.950927734,479,-494,321
2155,-2.956542969,-2.846923828,-5.946044922,494,-473,343
2160,-2.958251953,-2.847900391,-5.950683594,498,-503,326
2165,-2.954833984,-2.84375,-5.945800781,509,-483,331
2170,-2.952880859,-2.848388672,-5.948974609,487,-505,322
2176,-2.957763672,-2.843994141,-5.948730469,491,-504,313
2181,-2.956054688,-2.846435547,-5.948242188,494,-460,327
2186,-2.960205078,-2.845947266,-5.953369141,477,-503,316
2191,-2.959960938,-2.844238281,-5.947753906,475,-485,314
2196,-2.957275391,-2.845214844,-5.947753906,478,-485,315
2201,-2.958007813,-2.842041016,-5.952880859,488,-482,290
2206,-2.959472656,-2.847900391,-5.947998047,510,-513,298
2211,-2.962890625,-2.842285156,-5.948242188,516,-493,320
2216,-2.959228516,-2.84765625,-5.9453125,491,-490,341
2221,-2.959472656,-2.848876953,-5.944580078,488,-497,314
2226,-2.957519531,-2.843994141,-5.945800781,484,-488,315
2231,-2.956787109,-2.843505859,-5.9453125,489,-480,312
2236,-2.962402344,-2.84375,-5.947998047,484,-479,336
2241,-2.9609375,-2.846191406,-5.9453125,493,-485,314
2246,-2.955322266,-2.844482422,-5.946777344,493,-473,295
2251,-2.958007813,-2.845214844,-5.947509766,492,-504,328
2256,-2.956298828,-2.842529297,-5.946289063,488,-475,322
2261,-2.953857422,-2.844970703,-5.953125,467,-471,312
2266,-2.961425781,-2.844238281,-5.941894531,481,-482,308
2271,-2.958984375,-2.850341797,-5.945556641,490,-460,325
2276,-2.960693359,-2.844238281,-5.943115234,481,-469,302
2281,-2.958496094,-2.848144531,-5.944580078,491,-475,332
2286,-2.956542969,-2.846923828,-5.943603516,492,-495,302
2291,-2.959228516,-2.845214844,-5.947021484,495,-478,307
2296,-2.956298828,-2.845214844,-5.946777344,483,-488,295
2301,-2.960449219,-2.845947266,-5.943603516,495,-480,343
2306,-2.955322266,-2.841552734,-5.949462891,489,-489,319
2312,-2.95703125,-2.847900391,-5.946533203,472,-465,291
2317,-2.9609375,-2.844238281,-5.941894531,491,-491,323
2322,-2.957519531,-2.844482422,-5.951171875,488,-481,321
2327,-2.960449219,-2.849121094,-5.946289063,495,-463,322
2332,-2.956542969,-2.842773438,-5.951416016,494,-484,281
2337,-2.955322266,-2.847167969,-5.938964844,494,-464,306
2342,-2.95703125,-2.845458984,-5.946533203,505,-492,313
2347,-2.957519531,-2.848632813,-5.94140625,493,-493,321
2352,-2.958007813,-2.848144531,-5.947998047,496,-490,315
2357,-2.956054688,-2.841308594,-5.951660156,492,-473,299
2362,-2.953369141,-2.846191406,-5.949707031,474,-493,329
2367,-2.957763672,-2.848876953,-5.9453125,476,-486,316
2372,-2.95703125,-2.846435547,-5.943115234,495,-483,296
2377,-2.957519531,-2.848388672,-5.940917969,501,-500,304
2382,-2.956298828,-2.845214844,-5.943115234,505,-477,335
2387,-2.960449219,-2.844970703,-5.947998047,490,-474,345
2392,-2.953613281,-2.843261719,-5.943603516,508,-497,322
2397,-2.955566406,-2.848388672,-5.947265625,463,-482,313
2402,-2.957519531,-2.843261719,-5.944580078,494,-496,322
2407,-2.954345703,-2.847412109,-5.947509766,511,-493,346
2412,-2.957763672,-2.84375,-5.945068359,492,-489,317
2417,-2.959960938,-2.845458984,-5.950195313,487,-478,328
2422,-2.958740234,-2.843261719,-5.943603516,497,-468,293
2427,-2.956787109,-2.842773438,-5.945068359,485,-491,310
2432,-2.957275391,-2.846923828,-5.952148438,479,-470,321
2437,-2.957519531,-2.845947266,-5.946777344,490,-490,308
2442,-2.959960938,-2.846679688,-5.944580078,507,-488,342
2447,-2.960449219,-2.847167969,-5.954589844,498,-492,339
2453,-2.959960938,-2.844726563,-5.946044922,486,-485,317
2458,-2.957763672,-2.842041016,-5.944335938,497,-496,307
2463,-2.954101563,-2.844970703,-5.954589844,494,-473,306
2468,-2.956054688,-2.846679688,-5.94140625,505,-497,320
2473,-2.959960938,-2.846191406,-5.949462891,498,-487,303
2478,-2.956298828,-2.844970703,-5.950195313,500,-508,324
2483,-2.962158203,-2.846923828,-5.941162109,499,-506,299
2488,-2.954101563,-2.845947266,-5.942871094,485,-496,313
2493,-2.956298828,-2.843994141,-5.956542969,486,-476,311
2498,-2.957519531,-2.84765625,-5.946777344,488,-469,339
2503,-2.957275391,-2.846923828,-5.945556641,494,-479,312
2508,-2.959472656,-2.843017578,-5.951660156,494,-475,321
2513,-2.955078125,-2.846191406,-5.946289063,497,-465,303
2518,-2.955810547,-2.843017578,-5.947998047,510,-480,329
2523,-2.956054688,-2.844726563,-5.937255859,495,-497,323
2528,-2.957519531,-2.846923828,-5.953613281,496,-477,305
2533,-2.958007813,-2.841552734,-5.939208984,504,-492,348
2538,-2.960693359,-2.848388672,-5.951171875,502,-490,307
2543,-2.958496094,-2.845214844,-5.947753906,481,-505,312
2548,-2.956787109,-2.849121094,-5.942871094,486,-462,311
2553,-2.960205078,-2.845458984,-5.949707031,486,-494,325
2558,-2.958251953,-2.843994141,-5.948242188,480,-489,328
2563,-2.956787109,-2.841552734,-5.949951172,479,-493,322
2568,-2.954589844,-2.842041016,-5.943603516,507,-491,328
2573,-2.958251953,-2.847167969,-5.940673828,518,-481,333
2578,-2.956054688,-2.843505859,-5.94921875,505,-498,347
2583,-2.957275391,-2.846923828,-5.94921875,504,-494,311
2589,-2.957275391,-2.846191406,-5.949951172,491,-479,289
2594,-2.955566406,-2.842773438,-5.949707031,509,-482,303
2599,-2.958984375,-2.846923828,-5.936523438,488,-507,320
2604,-2.960205078,-2.840820313,-5.941894531,503,-477,316
2609,-2.955322266,-2.847412109,-5.951171875,478,-481,315
2614,-2.959716797,-2.846435547,-5.945068359,489,-484,311
2619,-2.956787109,-2.846435547,-5.946289063,488,-487,320
2624,-2.958251953,-2.844238281,-5.951660156,483,-488,312
2629,-2.960205078,-2.845214844,-5.950683594,495,-512,308
2634,-2.958740234,-2.844726563,-5.943847656,510,-483,321
2639,-2.959960938,-2.843261719,-5.944824219,493,-477,325
2644,-2.957275391,-2.842529297,-5.947998047,503,-506,316
2649,-2.958007813,-2.844482422,-5.952880859,485,-495,322
2654,-2.958740234,-2.84765625,-5.947998047,499,-497,313
2659,-2.960205078,-2.847900391,-5.94921875,480,-466,328
2664,-2.955566406,-2.844970703,-5.94921875,484,-507,324
2669,-2.958740234,-2.842285156,-5.948242188,489,-491,335
2674,-2.95703125,-2.84375,-5.949707031,484,-488,296
2679,-2.958984375,-2.840576172,-5.946044922,499,-502,328
2684,-2.958496094,-2.848632813,-5.945800781,474,-472,305
2689,-2.956542969,-2.84375,-5.939697266,500,-471,314
2694,-2.957763672,-2.84765625,-5.949951172,492,-480,338
2699,-2.958496094,-2.846679688,-5.951171875,488,-483,331
2704,-2.956787109,-2.845214844,-5.946289063,504,-499,339
2709,-2.955322266,-2.844726563,-5.945068359,499,-504,312
2714,-2.958740234,-2.84765625,-5.943115234,484,-492,296
2719,-2.956542969,-2.844726563,-5.942138672,493,-482,323
2724,-2.955566406,-2.842041016,-5.950927734,484,-487,324
2730,-2.956787109,-2.843505859,-5.948730469,482,-494,310
2735,-2.960693359,-2.84765625,-5.944824219,479,-474,323
2740,-2.954833984,-2.846435547,-5.947265625,500,-496,301
2745,-2.962402344,-2.845458984,-5.950439453,489,-488,316
2750,-2.956787109,-2.848388672,-5.948486328,522,-464,331
2755,-2.955322266,-2.849121094,-5.940185547,496,-491,337
2760,-2.957519531,-2.843261719,-5.945068359,483,-476,303
2765,-2.954833984,-2.84375,-5.959716797,501,-503,322
2770,-2.959960938,-2.845214844,-5.951660156,499,-493,335
2775,-2.958984375,-2.843994141,-5.942382813,485,-493,359
2780,-2.957519531,-2.844482422,-5.946777344,497,-491,324
2785,-2.957275391,-2.845947266,-5.943115234,468,-489,326
2790,-2.958496094,-2.846435547,-5.943603516,481,-504,342
2795,-2.958740234,-2.845703125,-5.949462891,501,-468,312
2800,-2.959228516,-2.846191406,-5.947265625,504,-482,315
2805,-2.957763672,-2.848388672,-5.951416016,506,-481,316
2810,-2.952636719,-2.846191406,-5.944824219,487,-499,329
2815,-2.954101563,-2.843994141,-5.945556641,508,-463,303
2820,-2.960449219,-2.848632813,-5.944335938,482,-493,329
2825,-2.961425781,-2.847412109,-5.945800781,464,-502,322
2830,-2.959960938,-2.847412109,-5.947998047,491,-500,338
2835,-2.958496094,-2.843505859,-5.952392578,492,-480,325
2840,-2.957763672,-2.84375,-5.948242188,483,-482,306
2845,-2.958740234,-2.844970703,-5.951416016,497,-490,321
2850,-2.958251953,-2.847900391,-5.944091797,487,-484,323
2855,-2.957519531,-2.844970703,-5.950683594,496,-486,317
2860,-2.959472656,-2.847900391,-5.949462891,482,-496,306
2866,-2.958740234,-2.846923828,-5.948974609,488,-489,336
2871,-2.956298828,-2.84765625,-5.950683594,496,-479,323
2876,-2.957763672,-2.847167969,-5.947998047,511,-484,317
2881,-2.958496094,-2.850585938,-5.945800781,500,-480,325
2886,-2.956787109,-2.845214844,-5.940185547,472,-488,333
2891,-2.958007813,-2.843017578,-5.943847656,501,-494,320
2896,-2.956542969,-2.841796875,-5.950683594,492,-478,312
2901,-2.955566406,-2.848632813,-5.947998047,493,-475,336
2906,-2.956787109,-2.842773438,-5.946777344,517,-487,304
2911,-2.958740234,-2.846191406,-5.94921875,473,-497,308
2916,-2.960449219,-2.846679688,-5.947998047,514,-501,295
2921,-2.955566406,-2.842529297,-5.941162109,491,-469,306
2926,-2.960205078,-2.846435547,-5.948486328,483,-490,323
2931,-2.956054688,-2.846191406,-5.945800781,483,-484,304
2936,-2.960693359,-2.843261719,-5.935546875,486,-492,332
2941,-2.958007813,-2.844238281,-5.948486328,485,-480,327
2946,-2.959716797,-2.843505859,-5.948242188,487,-485,314
2951,-2.960205078,-2.843505859,-5.944091797,490,-466,317
2956,-2.955078125,-2.844238281,-5.947265625,495,-520,321
2961,-2.955078125,-2.843017578,-5.950439453,463,-460,307
2966,-2.956298828,-2.846923828,-5.953369141,501,-503,344
2971,-2.956298828,-2.846435547,-5.945800781,488,-475,310
2976,-2.958251953,-2.843505859,-5.947998047,483,-489,304
2981,-2.957519531,-2.845947266,-5.941162109,494,-489,317
2986,-2.958007813,-2.845703125,-5.941894531,484,-485,311
2991,-2.957519531,-2.848876953,-5.940185547,513,-500,318
2996,-2.958984375,-2.843017578,-5.949951172,477,-482,335
3002,-2.959472656,-2.845214844,-5.946533203,490,-498,332
3007,-2.960205078,-2.843505859,-5.951416016,489,-473,329
3012,-2.960449219,-2.849121094,-5.949707031,495,-479,322
3017,-2.958984375,-2.847412109,-5.941894531,494,-482,327
3022,-2.959960938,-2.849853516,-5.941894531,503,-494,324
3027,-2.961914063,-2.845947266,-5.948486328,468,-500,335
3032,-2.953613281,-2.846191406,-5.9453125,499,-490,323
3037,-2.956054688,-2.845703125,-5.950683594,493,-493,328
3042,-2.962646484,-2.844482422,-5.949951172,500,-480,291
3047,-2.959228516,-2.844238281,-5.945556641,483,-487,314
3052,-2.957519531,-2.845458984,-5.942871094,499,-483,318
3057,-2.955078125,-2.844970703,-5.944580078,504,-492,313
3062,-2.956542969,-2.845703125,-5.947753906,511,-495,307
3067,-2.9609375,-2.845214844,-5.938476563,492,-499,308
3072,-2.955322266,-2.845703125,-5.942871094,478,-491,299
3077,-2.957763672,-2.846923828,-5.947509766,450,-507,331
3082,-2.959472656,-2.843505859,-5.943115234,485,-496,324
3087,-2.956542969,-2.844238281,-5.951416016,500,-505,319
3092,-2.959960938,-2.848876953,-5.942382813,474,-494,318
3097,-2.960449219,-2.846679688,-5.953369141,487,-496,324
3102,-2.960693359,-2.845458984,-5.950195313,499,-478,331
3107,-2.960205078,-2.843261719,-5.947998047,504,-479,302
3112,-2.956298828,-2.848876953,-5.944824219,504,-493,329
3117,-2.958496094,-2.846191406,-5.948974609,501,-478,311
3122,-2.956542969,-2.846435547,-5.947998047,503,-470,307
3127,-2.95703125,-2.844482422,-5.944091797,478,-481,326
3132,-2.956787109,-2.843994141,-5.948730469,480,-495,316
3137,-2.962646484,-2.844970703,-5.945068359,477,-493,298
3143,-2.956054688,-2.844482422,-5.941894531,488,-489,311
3148,-2.958007813,-2.844482422,-5.938720703,480,-487,324
3153,-2.954345703,-2.845947266,-5.954589844,475,-485,318
3158,-2.954833984,-2.846923828,-5.947265625,493,-474,305
3163,-2.956298828,-2.845703125,-5.947753906,486,-488,341
3168,-2.955322266,-2.849365234,-5.938964844,490,-476,298
3173,-2.959472656,-2.843261719,-5.941162109,489,-503,319
3178,-2.958984375,-2.848388672,-5.946044922,488,-494,314
3183,-2.959960938,-2.842773438,-5.955078125,487,-481,313
3188,-2.963378906,-2.842041016,-5.940673828,502,-488,312
3193,-2.957275391,-2.841064453,-5.950683594,487,-483,313
3198,-2.959472656,-2.841796875,-5.947998047,491,-498,302
3203,-2.954345703,-2.844482422,-5.942138672,503,-462,302
3208,-2.957763672,-2.845214844,-5.951660156,500,-462,313
3213,-2.959716797,-2.84765625,-5.949462891,503,-473,319
3218,-2.959716797,-2.843017578,-5.945556641,517,-513,333
3223,-2.958007813,-2.840576172,-5.947265625,503,-471,317
3228,-2.956542969,-2.844238281,-5.948486328,515,-473,289
3233,-2.954101563,-2.844726563,-5.943115234,483,-492,342
3238,-2.958740234,-2.844238281,-5.948730469,487,-493,304
3243,-2.955322266,-2.845214844,-5.950195313,509,-494,310
3248,-2.959716797,-2.844970703,-5.949462891,485,-495,325
3253,-2.958984375,-2.846435547,-5.940429688,482,-498,321
3258,-2.957275391,-2.84375,-5.943115234,503,-483,342
3263,-2.951660156,-2.845214844,-5.945800781,492,-484,313
3268,-2.957763672,-2.845703125,-5.951416016,497,-481,328
3273,-2.9609375,-2.842773438,-5.950439453,497,-477,318
3279,-2.954833984,-2.846191406,-5.944091797,478,-494,315
3284,-2.958251953,-2.845458984,-5.945068359,513,-478,308
3289,-2.958251953,-2.847412109,-5.940429688,496,-469,328
3294,-2.959228516,-2.845947266,-5.947265625,484,-506,304
3299,-2.959960938,-2.844970703,-5.94140625,491,-495,314
3304,-2.961425781,-2.843261719,-5.943115234,480,-492,307
3309,-2.959716797,-2.841796875,-5.942871094,489,-474,324
3314,-2.957763672,-2.842529297,-5.947509766,476,-488,348
3319,-2.958984375,-2.847900391,-5.948242188,491,-469,327
3324,-2.956054688,-2.844726563,-5.954589844,497,-503,315
3329,-2.955810547,-2.849609375,-5.946289063,493,-493,325
3334,-2.958496094,-2.846923828,-5.943847656,496,-507,321
3339,-2.959472656,-2.842529297,-5.937988281,501,-480,293
3344,-2.957275391,-2.849853516,-5.955078125,494,-473,303
3349,-2.960449219,-2.846435547,-5.945556641,480,-499,310
3354,-2.953857422,-2.845458984,-5.951660156,497,-473,327
3359,-2.958007813,-2.844482422,-5.945068359,518,-495,329
3364,-2.952880859,-2.845214844,-5.946044922,487,-477,306
3369,-2.9609375,-2.844726563,-5.94140625,525,-484,323
3374,-2.958496094,-2.84375,-5.950439453,494,-483,302
3379,-2.958251953,-2.844238281,-5.949462891,489,-484,311
3384,-2.959472656,-2.849121094,-5.942626953,484,-480,315
3389,-2.957519531,-2.845703125,-5.943847656,502,-490,320
3394,-2.961425781,-2.843994141,-5.944824219,488,-492,302
3399,-2.958251953,-2.848876953,-5.942138672,500,-485,286
3404,-2.958007813,-2.844726563,-5.952636719,501,-497,313
3409,-2.955566406,-2.849121094,-5.956787109,473,-463,304
3415,-2.959472656,-2.844238281,-5.948242188,507,-470,294
3420,-2.957275391,-2.844238281,-5.943847656,501,-491,314
3425,-2.959960938,-2.846679688,-5.951171875,480,-496,323
3430,-2.954833984,-2.843261719,-5.944091797,497,-482,316
3435,-2.957763672,-2.846435547,-5.947509766,470,-484,329
3440,-2.957275391,-2.846679688,-5.953125,493,-471,324
3445,-2.957275391,-2.845703125,-5.954345703,498,-487,311
3450,-2.95703125,-2.843017578,-5.939941406,463,-472,320
3455,-2.957519531,-2.845458984,-5.947998047,486,-475,296
3460,-2.959960938,-2.843261719,-5.944824219,482,-485,315
3465,-2.958984375,-2.846435547,-5.941650391,480,-470,305
3470,-2.958007813,-2.848632813,-5.9453125,483,-465,312
3475,-2.958496094,-2.846679688,-5.952880859,506,-489,314
3480,-2.955566406,-2.846679688,-5.945068359,481,-502,310
3485,-2.958007813,-2.844970703,-5.946289063,480,-499,307
3490,-2.956787109,-2.843994141,-5.939941406,498,-485,323
3495,-2.959228516,-2.844726563,-5.95703125,468,-490,323
3500,-2.956298828,-2.846923828,-5.943115234,490,-465,334
3505,-2.958984375,-2.848144531,-5.948486328,507,-491,334
3510,-2.955322266,-2.845703125,-5.948486328,487,-486,334
3515,-2.957519531,-2.843994141,-5.945800781,512,-475,299
3520,-2.956542969,-2.845214844,-5.947753906,488,-490,323
3525,-2.952636719,-2.846191406,-5.942138672,486,-484,316
3530,-2.953857422,-2.845703125,-5.945068359,483,-500,320
3535,-2.959472656,-2.842041016,-5.949462891,500,-501,311
3540,-2.958984375,-2.845214844,-5.948974609,480,-486,333
3545,-2.956542969,-2.844482422,-5.94140625,494,-504,314
3550,-2.957519531,-2.847412109,-5.944580078,490,-489,290
3556,-2.954345703,-2.845947266,-5.944335938,489,-486,340
3561,-2.958740234,-2.847167969,-5.954101563,489,-484,331
3566,-2.956542969,-2.845214844,-5.947265625,491,-479,301
3571,-2.960449219,-2.842041016,-5.953369141,476,-479,310
3576,-2.955566406,-2.844482422,-5.952392578,486,-475,299
3581,-2.961425781,-2.847900391,-5.947265625,496,-465,332
3586,-2.956298828,-2.84765625,-5.950683594,474,-472,317
3591,-2.957519531,-2.844482422,-5.947509766,492,-487,325
3596,-2.957275391,-2.842773438,-5.945800781,494,-478,331
3601,-2.957519531,-2.845458984,-5.946044922,490,-497,328
3606,-2.959472656,-2.844482422,-5.9453125,483,-472,303
3611,-2.957519531,-2.842773438,-5.949462891,466,-469,336
3616,-2.960205078,-2.846923828,-5.946289063,502,-487,316
3621,-2.95703125,-2.844482422,-5.951171875,497,-494,306
3626,-2.958007813,-2.848876953,-5.950195313,490,-501,340
3631,-2.956542969,-2.841308594,-5.946044922,511,-471,315
3636,-2.960205078,-2.846435547,-5.949462891,482,-479,300
3641,-2.958007813,-2.848388672,-5.946289063,501,-516,320
3646,-2.955322266,-2.844482422,-5.947753906,508,-488,321
3651,-2.960205078,-2.843505859,-5.950683594,492,-495,326
3656,-2.957519531,-2.84375,-5.952148438,497,-481,299
3661,-2.955078125,-2.844238281,-5.949951172,480,-469,298
3666,-2.958007813,-2.844970703,-5.947998047,493,-475,330
3671,-2.958984375,-2.843994141,-5.941650391,493,-487,339
3676,-2.955566406,-2.844726563,-5.951416016,498,-491,324
3681,-2.954589844,-2.847900391,-5.9453125,494,-475,309
3686,-2.958007813,-2.843017578,-5.946533203,507,-484,292
3692,-2.954101563,-2.842529297,-5.939208984,467,-493,317
3697,-2.958984375,-2.841308594,-5.946777344,500,-487,300
3702,-2.961181641,-2.843994141,-5.943847656,472,-478,329
3707,-2.957275391,-2.845458984,-5.945068359,490,-499,306
3712,-2.960693359,-2.845214844,-5.942871094,484,-469,305
3717,-2.960205078,-2.845703125,-5.954833984,488,-496,327
3722,-2.958007813,-2.842773438,-5.944091797,495,-501,291
3727,-2.953857422,-2.843261719,-5.945800781,499,-486,330
3732,-2.956787109,-2.846191406,-5.941162109,514,-467,303
3737,-2.956298828,-2.848876953,-5.945800781,499,-474,334
3742,-2.959960938,-2.84375,-5.947021484,478,-478,328
3747,-2.957275391,-2.844726563,-5.947021484,480,-488,319
3752,-2.962158203,-2.849121094,-5.9453125,504,-497,325
3757,-2.958496094,-2.845947266,-5.949707031,483,-479,311
3762,-2.954589844,-2.844970703,-5.951171875,481,-481,305
3767,-2.955322266,-2.843505859,-5.943359375,512,-487,324
3772,-2.955566406,-2.845458984,-5.948730469,482,-485,305
3777,-2.955322266,-2.840820313,-5.945556641,500,-499,325
3782,-2.959716797,-2.844238281,-5.949951172,474,-479,320
3787,-2.958740234,-2.848632813,-5.938964844,491,-470,327
3792,-2.954833984,-2.846191406,-5.946533203,500,-468,354
3797,-2.957763672,-2.844482422,-5.948486328,494,-503,332
3802,-2.95703125,-2.844970703,-5.941650391,492,-450,326
3807,-2.955810547,-2.845214844,-5.951660156,497,-482,318
3812,-2.956298828,-2.842529297,-5.948974609,488,-469,316
3817,-2.961181641,-2.842285156,-5.946777344,472,-471,301
3822,-2.956298828,-2.842041016,-5.952636719,498,-496,307
3827,-2.9609375,-2.848144531,-5.948242188,500,-481,334
3833,-2.959228516,-2.842529297,-5.946289063,472,-484,309
3838,-2.957763672,-2.844726563,-5.948974609,479,-491,330
3843,-2.956787109,-2.845458984,-5.942626953,490,-489,316
3848,-2.958007813,-2.839599609,-5.942626953,480,-493,305
3853,-2.958007813,-2.848388672,-5.950439453,492,-491,321
3858,-2.9609375,-2.843261719,-5.948242188,482,-469,325
3863,-2.960205078,-2.846679688,-5.94921875,490,-504,339
3868,-2.959960938,-2.845703125,-5.952392578,498,-484,304
3873,-2.955322266,-2.844238281,-5.945556641,513,-506,309
3878,-2.956542969,-2.846191406,-5.943603516,486,-497,322
3883,-2.955078125,-2.844970703,-5.941650391,484,-493,328
3888,-2.957275391,-2.844482422,-5.944335938,470,-486,324
3893,-2.958251953,-2.842285156,-5.950439453,468,-477,314
3898,-2.956542969,-2.842529297,-5.945556641,518,-501,305
3903,-2.959472656,-2.845214844,-5.943115234,499,-469,341
3908,-2.958496094,-2.840332031,-5.942871094,486,-479,324
3913,-2.95703125,-2.842285156,-5.948974609,499,-487,342
3918,-2.958496094,-2.846923828,-5.941894531,515,-489,296
3923,-2.959472656,-2.842773438,-5.9453125,483,-493,317
3928,-2.95703125,-2.846679688,-5.95703125,492,-496,306
3933,-2.958740234,-2.843994141,-5.9453125,484,-490,336
3938,-2.955810547,-2.842285156,-5.953125,484,-473,314
3943,-2.954833984,-2.842285156,-5.955810547,478,-485,318
3948,-2.959960938,-2.845214844,-5.947265625,497,-479,311
3953,-2.958740234,-2.847900391,-5.942871094,500,-494,310
3958,-2.959960938,-2.842773438,-5.946289063,502,-500,323
3963,-2.959716797,-2.844238281,-5.945068359,493,-464,309
3969,-2.957519531,-2.845703125,-5.943359375,504,-485,322
3974,-2.956298828,-2.84375,-5.949951172,506,-487,326
3979,-2.961669922,-2.840087891,-5.948974609,493,-494,314
3984,-2.954833984,-2.843261719,-5.945556641,495,-492,300
3989,-2.957519531,-2.842773438,-5.943847656,500,-539,301
3994,-2.956787109,-2.846435547,-5.946044922,497,-485,323
3999,-2.958496094,-2.847412109,-5.946533203,489,-481,321
4004,-2.956542969,-2.843994141,-5.945800781,483,-472,324
4009,-2.959716797,-2.845703125,-5.951904297,502,-456,316
4014,-2.956054688,-2.847167969,-5.947998047,486,-481,332
4019,-2.954589844,-2.845214844,-5.947753906,481,-484,335
4024,-2.958984375,-2.843994141,-5.946289063,498,-470,315
4029,-2.959228516,-2.849609375,-5.947753906,473,-473,319
4034,-2.956542969,-2.846679688,-5.947265625,480,-486,316
4039,-2.956787109,-2.845214844,-5.949707031,488,-486,325
4044,-2.956298828,-2.844238281,-5.953369141,489,-485,321
4049,-2.961425781,-2.845947266,-5.947021484,481,-480,315
4054,-2.959716797,-2.843505859,-5.94921875,511,-479,308
4059,-2.954833984,-2.843017578,-5.951660156,470,-472,315
4064,-2.95703125,-2.845458984,-5.949707031,481,-473,298
4069,-2.962402344,-2.846191406,-5.945556641,481,-511,318
4074,-2.956542969,-2.843505859,-5.948730469,497,-485,320
4079,-2.956542969,-2.842773438,-5.947265625,488,-476,326
4084,-2.956787109,-2.839355469,-5.948974609,503,-486,333
4089,-2.956298828,-2.847412109,-5.936523438,475,-490,295
4094,-2.958496094,-2.844482422,-5.944335938,493,-514,306
4099,-2.954345703,-2.841308594,-5.943359375,489,-468,305
4105,-2.959228516,-2.842773438,-5.948242188,488,-502,321
4110,-2.958251953,-2.843261719,-5.951660156,511,-457,320
4115,-2.960205078,-2.845458984,-5.950195313,482,-473,316
4120,-2.956542969,-2.844482422,-5.949707031,512,-479,313
4125,-2.952392578,-2.841308594,-5.948974609,489,-488,340
4130,-2.955078125,-2.845214844,-5.951660156,479,-492,319
4135,-2.959228516,-2.846191406,-5.941162109,486,-499,322
4140,-2.957519531,-2.846191406,-5.949951172,482,-496,299
4145,-2.956787109,-2.845458984,-5.950195313,487,-492,330
4150,-2.959228516,-2.844482422,-5.944091797,474,-503,319
4155,-2.955078125,-2.846191406,-5.944824219,494,-458,306
4160,-2.958251953,-2.84375,-5.945556641,504,-456,299
4165,-2.958496094,-2.846923828,-5.947265625,486,-511,332
4170,-2.95703125,-2.845947266,-5.950927734,490,-488,324
4175,-2.958251953,-2.845214844,-5.950195313,504,-497,312
4180,-2.95703125,-2.846191406,-5.948486328,498,-466,325
4185,-2.959716797,-2.841796875,-5.947998047,504,-494,320
4190,-2.956787109,-2.845947266,-5.944091797,496,-494,323
4195,-2.957275391,-2.844238281,-5.9453125,493,-467,319
4200,-2.958496094,-2.842773438,-5.950927734,479,-471,303
4205,-2.961181641,-2.840332031,-5.945556641,500,-479,354
4210,-2.959716797,-2.847167969,-5.952148438,489,-464,317
4215,-2.956298828,-2.846435547,-5.948486328,499,-481,332
4220,-2.956054688,-2.846191406,-5.953613281,482,-495,296
4225,-2.956298828,-2.846191406,-5.94921875,488,-491,331
4230,-2.956298828,-2.846923828,-5.938964844,477,-484,298
4235,-2.961425781,-2.846435547,-5.947021484,475,-494,306
4240,-2.957519531,-2.843017578,-5.947753906,491,-494,328
4246,-2.961669922,-2.845703125,-5.948242188,482,-478,318
4251,-2.958496094,-2.841552734,-5.940429688,480,-499,332
4256,-2.959472656,-2.840576172,-5.942871094,499,-473,328
4261,-2.960205078,-2.847167969,-5.9453125,494,-483,322
4266,-2.958740234,-2.846191406,-5.946533203,521,-504,323
4271,-2.956298828,-2.848144531,-5.937011719,501,-469,307
4276,-2.960205078,-2.847167969,-5.949707031,500,-481,301
4281,-2.956054688,-2.845458984,-5.952148438,493,-493,316
4286,-2.958740234,-2.842529297,-5.946533203,496,-498,307
4291,-2.958740234,-2.844726563,-5.94921875,496,-494,311
4296,-2.954101563,-2.843017578,-5.946289063,467,-496,334
4301,-2.956298828,-2.844726563,-5.947998047,500,-490,299
4306,-2.958007813,-2.842041016,-5.948730469,477,-486,307
4311,-2.958496094,-2.844238281,-5.952148438,485,-493,311
4316,-2.959716797,-2.845947266,-5.940917969,483,-497,315
4321,-2.958251953,-2.841796875,-5.942382813,497,-478,348
4326,-2.95703125,-2.844970703,-5.940185547,479,-479,299
4331,-2.95703125,-2.842773438,-5.94140625,481,-482,327
4336,-2.956542969,-2.84375,-5.947998047,486,-487,321
4341,-2.957519531,-2.842529297,-5.950927734,482,-477,311
4346,-2.954589844,-2.843261719,-5.952880859,470,-485,320
4351,-2.960693359,-2.844970703,-5.948730469,481,-499,330
4356,-2.958007813,-2.846191406,-5.949951172,477,-494,324
4361,-2.95703125,-2.843994141,-5.947509766,496,-501,316
4366,-2.959228516,-2.841064453,-5.942626953,494,-485,341
4371,-2.95703125,-2.844970703,-5.945556641,486,-479,316
4376,-2.960205078,-2.846435547,-5.942382813,498,-458,326
4382,-2.959716797,-2.83984375,-5.942138672,515,-489,324
4387,-2.95703125,-2.844726563,-5.945068359,511,-476,306
4392,-2.957519531,-2.844238281,-5.945068359,484,-497,296
4397,-2.961425781,-2.846923828,-5.944091797,500,-502,310
4402,-2.958251953,-2.846435547,-5.947021484,484,-472,341
4407,-2.958984375,-2.844482422,-5.950683594,494,-499,323
4412,-2.957763672,-2.841064453,-5.944335938,498,-468,319
4417,-2.954101563,-2.843261719,-5.950195313,488,-479,318
4422,-2.959472656,-2.844482422,-5.946777344,508,-494,324
4427,-2.957275391,-2.843261719,-5.953857422,508,-476,321
4432,-2.957519531,-2.843017578,-5.945068359,495,-489,346
4437,-2.953369141,-2.842529297,-5.943359375,490,-480,304
4442,-2.954589844,-2.843017578,-5.944091797,480,-488,313
4447,-2.955078125,-2.83984375,-5.947998047,504,-477,319
4452,-2.956298828,-2.844238281,-5.949707031,486,-499,290
4457,-2.957519531,-2.844970703,-5.945556641,497,-501,312
4462,-2.955322266,-2.842773438,-5.954833984,467,-478,309
4467,-2.957519531,-2.842773438,-5.950195313,475,-502,318
4472,-2.954345703,-2.850830078,-5.952148438,517,-485,312
4477,-2.956054688,-2.843017578,-5.949462891,489,-465,321
4482,-2.959472656,-2.840576172,-5.949462891,515,-484,327
4487,-2.957519531,-2.845947266,-5.946289063,490,-485,319
4492,-2.956787109,-2.843994141,-5.948486328,511,-477,323
4497,-2.952392578,-2.841796875,-5.940917969,513,-475,325
4502,-2.958984375,-2.844970703,-5.944580078,496,-478,315
4507,-2.954833984,-2.845703125,-5.947998047,491,-505,300
4512,-2.955566406,-2.846679688,-5.950683594,505,-512,304
4517,-2.955810547,-2.847412109,-5.937988281,513,-503,322
4523,-2.958740234,-2.848632813,-5.953613281,510,-484,322
4528,-2.958251953,-2.841552734,-5.950927734,487,-470,305
4533,-2.958007813,-2.842285156,-5.943115234,521,-475,322
4538,-2.959228516,-2.843261719,-5.948730469,488,-472,304
4543,-2.960205078,-2.841064453,-5.950195313,501,-472,299
4548,-2.959228516,-2.844482422,-5.937744141,475,-482,321
4553,-2.956054688,-2.84375,-5.945556641,480,-488,312
4558,-2.954345703,-2.844482422,-5.948242188,475,-480,301
4563,-2.953613281,-2.844726563,-5.941894531,503,-486,326
4568,-2.958984375,-2.844726563,-5.940429688,505,-487,324
4573,-2.958984375,-2.842285156,-5.948974609,451,-479,321
4578,-2.955322266,-2.846191406,-5.955322266,483,-493,322
4583,-2.958984375,-2.843994141,-5.946044922,500,-496,306
4588,-2.958251953,-2.844970703,-5.94921875,511,-497,310
4593,-2.954833984,-2.843261719,-5.94921875,484,-498,325
4598,-2.953125,-2.843505859,-5.951660156,488,-473,316
4603,-2.956542969,-2.846679688,-5.945556641,500,-484,301
4608,-2.956787109,-2.841796875,-5.947998047,509,-478,309
4613,-2.956298828,-2.842041016,-5.946044922,486,-488,310
4618,-2.956542969,-2.849853516,-5.946289063,485,-495,337
4623,-2.955566406,-2.845214844,-5.947021484,488,-483,302
4628,-2.956054688,-2.84375,-5.947753906,498,-492,308
4633,-2.956787109,-2.845458984,-5.946777344,505,-510,335
4638,-2.962646484,-2.846923828,-5.948242188,476,-482,337
4643,-2.955322266,-2.845703125,-5.950927734,474,-479,321
4648,-2.958007813,-2.846191406,-5.948486328,509,-499,301
4653,-2.958496094,-2.845703125,-5.948242188,490,-476,307
4659,-2.95703125,-2.846679688,-5.945556641,481,-502,325
4664,-2.959472656,-2.846191406,-5.946533203,481,-478,321
4669,-2.958740234,-2.844970703,-5.943115234,484,-457,326
4674,-2.959716797,-2.843994141,-5.951660156,514,-472,324
4679,-2.956298828,-2.84375,-5.951416016,500,-472,311
4684,-2.958007813,-2.845703125,-5.946289063,481,-474,317
4689,-2.954345703,-2.851318359,-5.948730469,485,-485,302
4694,-2.960693359,-2.846435547,-5.945800781,482,-489,329
4699,-2.957519531,-2.844726563,-5.943115234,486,-480,320
4704,-2.957763672,-2.847900391,-5.947509766,474,-461,292
4709,-2.961669922,-2.846191406,-5.948730469,483,-495,330
4714,-2.956542969,-2.844726563,-5.950195313,488,-509,330
4719,-2.960449219,-2.839599609,-5.94921875,487,-492,324
4724,-2.95703125,-2.843261719,-5.955566406,502,-491,304
4729,-2.957519531,-2.845947266,-5.948974609,490,-472,308
4734,-2.957275391,-2.848388672,-5.942138672,497,-465,292
4739,-2.954345703,-2.844970703,-5.944580078,495,-482,341
4744,-2.958007813,-2.84375,-5.953369141,480,-456,308
4749,-2.956542969,-2.84765625,-5.947265625,495,-503,333
4754,-2.956054688,-2.844482422,-5.954345703,505,-505,325
4759,-2.958251953,-2.843017578,-5.945068359,487,-504,322
4764,-2.961181641,-2.848144531,-5.947753906,506,-483,303
4769,-2.958007813,-2.849609375,-5.953125,476,-482,315
4774,-2.957763672,-2.844726563,-5.944580078,513,-501,337
4779,-2.956298828,-2.848388672,-5.951171875,510,-473,330
4784,-2.953613281,-2.846191406,-5.949707031,502,-485,336
4789,-2.956054688,-2.843994141,-5.943847656,495,-470,322
4795,-2.957519531,-2.848632813,-5.947998047,480,-500,298
4800,-2.959472656,-2.843505859,-5.950195313,479,-485,316
4805,-2.961669922,-2.843505859,-5.943359375,492,-486,305
4810,-2.961914063,-2.846191406,-5.953125,500,-488,314
4815,-2.958496094,-2.847167969,-5.947509766,500,-492,319
4820,-2.959716797,-2.84765625,-5.947753906,490,-479,306
4825,-2.953613281,-2.84375,-5.957763672,499,-496,317
4830,-2.957519531,-2.842773438,-5.946533203,492,-499,317
4835,-2.956787109,-2.842529297,-5.947998047,487,-475,290
4840,-2.959716797,-2.845947266,-5.943603516,497,-481,314
4845,-2.954345703,-2.842529297,-5.943115234,497,-477,323
4850,-2.962890625,-2.848632813,-5.9453125,491,-508,323
4855,-2.959472656,-2.848388672,-5.9453125,498,-480,317
4860,-2.954589844,-2.843017578,-5.947998047,485,-485,346
4865,-2.955078125,-2.84375,-5.941650391,494,-479,324
4870,-2.959716797,-2.845214844,-5.948242188,494,-475,320
4875,-2.958007813,-2.842285156,-5.951171875,483,-492,307
4880,-2.957275391,-2.844238281,-5.944091797,494,-484,311
4885,-2.959716797,-2.843994141,-5.948974609,495,-499,331
4890,-2.962402344,-2.843505859,-5.950439453,500,-488,322
4895,-2.960449219,-2.843994141,-5.944335938,492,-468,317
4900,-2.960449219,-2.844238281,-5.946777344,538,-489,317
4905,-2.958496094,-2.844970703,-5.944824219,495,-497,327
4910,-2.954833984,-2.847412109,-5.946533203,488,-480,312
4915,-2.9609375,-2.843261719,-5.947998047,500,-486,313
4920,-2.959716797,-2.848144531,-5.94921875,484,-473,330
4925,-2.958251953,-2.844970703,-5.946533203,478,-498,316
4930,-2.958496094,-2.843017578,-5.950195313,482,-486,313
4936,-2.959716797,-2.846191406,-5.943359375,484,-494,311
4941,-2.960205078,-2.841308594,-5.948486328,489,-454,320
4946,-2.95703125,-2.846679688,-5.941162109,483,-491,314
4951,-2.9609375,-2.848388672,-5.942138672,489,-506,323
4956,-2.962402344,-2.840087891,-5.952636719,515,-479,331
4961,-2.957519531,-2.845214844,-5.952148438,491,-479,323
4966,-2.957275391,-2.844482422,-5.939697266,502,-505,331
4971,-2.956542969,-2.84375,-5.951171875,500,-464,318
4976,-2.953613281,-2.843017578,-5.940673828,498,-496,338
4981,-2.957519531,-2.844238281,-5.937255859,475,-491,306
4986,-2.952148438,-2.845947266,-5.943603516,497,-498,307
4991,-2.95703125,-2.845214844,-5.943847656,494,-484,336
4996,-2.959228516,-2.844970703,-5.951904297,487,-502,318
5001,-2.956787109,-2.840820313,-5.951171875,496,-498,339
5006,-2.957763672,-2.843261719,-5.953369141,484,-492,308
5011,-2.953369141,-2.847900391,-5.955566406,484,-474,318
5016,-2.959960938,-2.850097656,-5.943115234,514,-478,332
5021,-2.960205078,-2.844726563,-5.946289063,506,-487,310
5026,-2.957275391,-2.845458984,-5.953857422,500,-495,327
5031,-2.957763672,-2.843017578,-5.945068359,502,-498,317
5036,-2.958251953,-2.84765625,-5.946777344,483,-480,332
5041,-2.954833984,-2.843017578,-5.944335938,485,-487,322
5046,-2.955322266,-2.843505859,-5.946533203,494,-481,325
5051,-2.961181641,-2.848388672,-5.948486328,479,-494,313
5056,-2.957519531,-2.843994141,-5.942626953,501,-489,319
5061,-2.953613281,-2.847167969,-5.945068359,503,-486,332
5066,-2.953857422,-2.846435547,-5.946044922,481,-481,297
5071,-2.95703125,-2.847412109,-5.952148438,485,-499,308
5077,-2.958740234,-2.843994141,-5.948242188,506,-485,297
5082,-2.956542969,-2.845458984,-5.949951172,501,-496,298
5087,-2.956787109,-2.843505859,-5.934082031,481,-515,315
5092,-2.955810547,-2.844726563,-5.943847656,485,-470,328
5097,-2.957763672,-2.843505859,-5.94921875,487,-469,338
5102,-2.958984375,-2.843261719,-5.947021484,498,-501,339
5107,-2.960693359,-2.843261719,-5.942871094,485,-497,317
5112,-2.956054688,-2.845947266,-5.945068359,500,-465,337
5117,-2.957763672,-2.849365234,-5.950927734,525,-501,326
5122,-2.958251953,-2.843017578,-5.954589844,513,-482,301
5127,-2.958007813,-2.844726563,-5.949462891,508,-476,318
5132,-2.9609375,-2.846679688,-5.945068359,493,-483,314
5137,-2.958984375,-2.845458984,-5.941894531,467,-480,330
5142,-2.956298828,-2.841796875,-5.947265625,490,-465,316
5147,-2.955566406,-2.843505859,-5.947265625,479,-492,321
5152,-2.957763672,-2.845947266,-5.939941406,489,-486,338
5157,-2.95703125,-2.845703125,-5.947021484,491,-512,325
5162,-2.958251953,-2.843017578,-5.945068359,489,-473,327
5167,-2.954589844,-2.847167969,-5.943359375,501,-479,303
5172,-2.955810547,-2.848144531,-5.948974609,496,-484,316
5177,-2.955322266,-2.842285156,-5.947265625,485,-490,305
5182,-2.954345703,-2.848876953,-5.938476563,501,-495,322
5187,-2.957763672,-2.844482422,-5.946044922,512,-479,293
5192,-2.957519531,-2.843017578,-5.952392578,484,-469,300
5197,-2.955322266,-2.843994141,-5.942626953,494,-502,330
5202,-2.95703125,-2.846191406,-5.947509766,485,-499,302
5207,-2.956787109,-2.846435547,-5.951171875,480,-467,304
5213,-2.956298828,-2.842285156,-5.947998047,477,-467,323
5218,-2.95703125,-2.845458984,-5.948974609,475,-484,303
5223,-2.959716797,-2.846679688,-5.945556641,472,-461,326
5228,-2.958740234,-2.846435547,-5.946533203,488,-481,313
5233,-2.958984375,-2.845458984,-5.948730469,501,-500,339
5238,-2.958984375,-2.84375,-5.938964844,503,-484,322
5243,-2.958496094,-2.846191406,-5.937011719,503,-482,298
5248,-2.957763672,-2.848632813,-5.948486328,490,-469,326
5253,-2.961914063,-2.845947266,-5.956298828,493,-498,317
5258,-2.958251953,-2.845214844,-5.956054688,507,-471,324
5263,-2.956054688,-2.84765625,-5.947265625,492,-489,301
5268,-2.95703125,-2.84375,-5.940429688,497,-508,307
5273,-2.958984375,-2.844482422,-5.949951172,504,-497,314
5278,-2.955810547,-2.842285156,-5.943115234,484,-469,306
5283,-2.959716797,-2.842529297,-5.9375,486,-494,328
5288,-2.956787109,-2.848388672,-5.946289063,484,-473,298
5293,-2.957763672,-2.842529297,-5.947265625,490,-497,301
5298,-2.959228516,-2.846435547,-5.945800781,504,-488,311
5303,-2.959228516,-2.845703125,-5.949707031,490,-477,309
5308,-2.956298828,-2.844482422,-5.949462891,513,-469,305
5313,-2.958007813,-2.846191406,-5.944824219,477,-471,351
5318,-2.955810547,-2.843017578,-5.953369141,492,-462,318
5323,-2.957275391,-2.842285156,-5.947265625,491,-493,349
5328,-2.958496094,-2.845214844,-5.952148438,489,-491,292
5333,-2.955566406,-2.84765625,-5.952880859,498,-488,337
5338,-2.956787109,-2.843017578,-5.950195313,508,-502,326
5343,-2.958740234,-2.847412109,-5.938964844,477,-501,341
5349,-2.962402344,-2.842529297,-5.935302734,506,-470,326
5354,-2.958251953,-2.844970703,-5.949462891,493,-476,330
5359,-2.954101563,-2.844726563,-5.951171875,511,-480,311
5364,-2.95703125,-2.845703125,-5.946044922,495,-461,329
5369,-2.959228516,-2.848144531,-5.949462891,496,-461,314
5374,-2.960205078,-2.846435547,-5.948730469,500,-480,328
5379,-2.958740234,-2.843994141,-5.953613281,485,-500,307
5384,-2.959228516,-2.843994141,-5.951660156,479,-490,310
5389,-2.961425781,-2.844726563,-5.953369141,489,-490,299
5394,-2.954833984,-2.843261719,-5.949462891,502,-500,310
5399,-2.956054688,-2.844726563,-5.942871094,492,-478,325
5404,-2.957763672,-2.843261719,-5.950195313,510,-483,335
5409,-2.959716797,-2.844482422,-5.947998047,500,-451,311
5414,-2.957275391,-2.84375,-5.943359375,495,-486,304
5419,-2.953857422,-2.84375,-5.947998047,487,-469,304
5424,-2.958496094,-2.846435547,-5.941650391,502,-485,290
5429,-2.958740234,-2.848388672,-5.945068359,493,-485,330
5434,-2.956542969,-2.844970703,-5.948974609,490,-500,324
5439,-2.958251953,-2.842773438,-5.9453125,488,-470,318
5444,-2.955810547,-2.842773438,-5.943359375,497,-477,310
5449,-2.956542969,-2.845703125,-5.942871094,479,-485,313
5454,-2.963134766,-2.845947266,-5.946777344,508,-475,296
5459,-2.957519531,-2.845458984,-5.943847656,492,-483,315
5464,-2.955078125,-2.844970703,-5.942871094,491,-486,318
5469,-2.957763672,-2.847167969,-5.950683594,513,-477,311
5474,-2.958740234,-2.843261719,-5.945800781,513,-487,311
5479,-2.958984375,-2.846923828,-5.944091797,496,-487,307
5484,-2.958251953,-2.844238281,-5.949707031,499,-492,324
5490,-2.958740234,-2.846923828,-5.954589844,466,-454,306
5495,-2.958251953,-2.846191406,-5.952636719,478,-500,315
5500,-2.958007813,-2.843017578,-5.948242188,470,-488,333
5505,-2.960693359,-2.844970703,-5.947998047,505,-500,299
5510,-2.957275391,-2.843017578,-5.950927734,474,-476,313
5515,-2.956054688,-2.84375,-5.943847656,498,-473,313
5520,-2.957275391,-2.843994141,-5.947509766,499,-458,310
5525,-2.958984375,-2.847167969,-5.947753906,490,-470,316
5530,-2.95703125,-2.846923828,-5.947998047,509,-473,338
5535,-2.957275391,-2.845703125,-5.949462891,489,-479,324
5540,-2.956054688,-2.84375,-5.952636719,482,-497,328
5545,-2.956298828,-2.847167969,-5.951171875,474,-497,305
5550,-2.957519531,-2.843261719,-5.945068359,491,-502,294
5555,-2.957763672,-2.843994141,-5.947753906,480,-490,310
5560,-2.959960938,-2.843994141,-5.946777344,490,-451,309
5565,-2.954589844,-2.845458984,-5.949462891,493,-493,341
5570,-2.959472656,-2.844970703,-5.948486328,496,-466,333
5575,-2.953857422,-2.845214844,-5.950927734,484,-488,320
5580,-2.95703125,-2.847412109,-5.945068359,524,-494,308
5585,-2.959228516,-2.843994141,-5.942626953,494,-469,313
5590,-2.956787109,-2.848144531,-5.950195313,479,-489,307
5595,-2.957275391,-2.846923828,-5.947998047,485,-504,336
5600,-2.955810547,-2.846679688,-5.939453125,503,-477,305
5605,-2.955810547,-2.846435547,-5.948974609,474,-483,326
5610,-2.958496094,-2.846435547,-5.948486328,484,-505,311
5615,-2.962158203,-2.847167969,-5.948486328,479,-499,321
5620,-2.954101563,-2.842285156,-5.957763672,511,-461,330
5626,-2.955810547,-2.845458984,-5.94921875,486,-490,305
5631,-2.956298828,-2.845458984,-5.951416016,503,-484,332
5636,-2.957275391,-2.844726563,-5.955566406,490,-464,310
5641,-2.957519531,-2.844482422,-5.953369141,495,-473,312
5646,-2.958984375,-2.847900391,-5.941650391,482,-492,314
5651,-2.958007813,-2.842041016,-5.947753906,473,-498,312
5656,-2.956787109,-2.844238281,-5.948486328,491,-500,316
5661,-2.954101563,-2.848632813,-5.946289063,464,-457,320
5666,-2.957275391,-2.843017578,-5.949707031,510,-494,315
5671,-2.958007813,-2.848388672,-5.950683594,504,-481,343
5676,-2.957763672,-2.843994141,-5.950195313,491,-480,302
5681,-2.959716797,-2.846435547,-5.937988281,489,-480,296
5686,-2.956542969,-2.846191406,-5.944824219,498,-476,320
5691,-2.955810547,-2.845947266,-5.945068359,494,-477,325
5696,-2.959960938,-2.84765625,-5.946044922,471,-483,328
5701,-2.958251953,-2.840576172,-5.945068359,466,-488,324
5706,-2.957275391,-2.840820313,-5.94921875,501,-473,312
5711,-2.957519531,-2.846679688,-5.942871094,463,-495,301
5716,-2.958740234,-2.844482422,-5.947509766,503,-486,322
5721,-2.958007813,-2.8515625,-5.9453125,496,-473,311
5726,-2.95703125,-2.842773438,-5.94921875,469,-483,332
5731,-2.956298828,-2.844482422,-5.949951172,511,-454,310
5736,-2.958984375,-2.845703125,-5.949951172,499,-475,309
5741,-2.958251953,-2.84375,-5.952880859,464,-496,319
5746,-2.956542969,-2.846435547,-5.942382813,485,-481,322
5751,-2.961914063,-2.842285156,-5.951416016,484,-492,313
5756,-2.960449219,-2.844726563,-5.940673828,483,-496,308
5762,-2.959472656,-2.844238281,-5.944824219,491,-498,313
5767,-2.957519531,-2.842773438,-5.949951172,503,-482,335
5772,-2.955566406,-2.842529297,-5.945800781,473,-493,320
5777,-2.960693359,-2.846191406,-5.9453125,507,-494,328
5782,-2.957519531,-2.84375,-5.950683594,514,-484,295
5787,-2.959960938,-2.844970703,-5.948242188,506,-468,331
5792,-2.955566406,-2.848876953,-5.947753906,489,-513,279
5797,-2.953369141,-2.843994141,-5.943359375,494,-496,338
5802,-2.957519531,-2.846191406,-5.950195313,475,-489,310
5807,-2.958251953,-2.845214844,-5.948730469,488,-505,308
5812,-2.956787109,-2.842285156,-5.939697266,495,-488,326
5817,-2.961181641,-2.843505859,-5.945556641,485,-468,314
5822,-2.956787109,-2.846191406,-5.948242188,483,-487,306
5827,-2.955810547,-2.845703125,-5.946289063,506,-475,301
5832,-2.957519531,-2.845947266,-5.947753906,498,-475,321
5837,-2.958251953,-2.845703125,-5.946533203,523,-498,321
5842,-2.956787109,-2.841552734,-5.949951172,487,-476,311
5847,-2.957519531,-2.844726563,-5.944580078,488,-485,316
5852,-2.958496094,-2.845947266,-5.94140625,487,-473,319
5857,-2.960449219,-2.846435547,-5.945800781,482,-492,330
5862,-2.956787109,-2.845703125,-5.951416016,501,-492,320
5867,-2.959472656,-2.844970703,-5.947021484,493,-466,328
5872,-2.958251953,-2.842529297,-5.947509766,484,-486,341
5877,-2.958251953,-2.844726563,-5.938476563,506,-497,320
5882,-2.959960938,-2.844726563,-5.946289063,511,-492,324
5887,-2.959472656,-2.844726563,-5.941162109,499,-498,299
5892,-2.958740234,-2.846679688,-5.943603516,492,-490,301
5897,-2.959716797,-2.844238281,-5.943115234,492,-478,325
5903,-2.954589844,-2.849365234,-5.955322266,509,-508,339
5908,-2.958496094,-2.84375,-5.942138672,494,-491,327
5913,-2.958984375,-2.846923828,-5.947021484,508,-484,310
5918,-2.958740234,-2.846679688,-5.947753906,493,-491,316
5923,-2.955322266,-2.843994141,-5.947509766,494,-507,311
5928,-2.957763672,-2.846191406,-5.949951172,498,-486,323
5933,-2.956054688,-2.843994141,-5.944335938,489,-473,305
5938,-2.956542969,-2.847900391,-5.947509766,515,-481,309
5943,-2.955810547,-2.843261719,-5.937988281,484,-479,323
5948,-2.957763672,-2.848144531,-5.949707031,473,-490,274
5953,-2.957275391,-2.847900391,-5.94921875,482,-494,318
5958,-2.955322266,-2.846191406,-5.944824219,491,-478,318
5963,-2.958251953,-2.846679688,-5.944580078,491,-497,324
5968,-2.957275391,-2.842529297,-5.950927734,492,-467,304
5973,-2.960205078,-2.844726563,-5.950195313,502,-479,313
5978,-2.960693359,-2.845947266,-5.94140625,497,-493,305
5983,-2.958496094,-2.849121094,-5.945068359,499,-475,316
5988,-2.955566406,-2.843017578,-5.941650391,493,-470,316
5993,-2.954589844,-2.84375,-5.943847656,482,-511,322
5998,-2.958007813,-2.841796875,-5.944824219,497,-464,325
6003,-2.959472656,-2.845947266,-5.947265625,476,-505,292
6008,-2.956542969,-2.844482422,-5.948486328,479,-489,310
6013,-2.958251953,-2.847412109,-5.945068359,485,-475,324
6018,-2.958007813,-2.844482422,-5.944091797,496,-498,290
6023,-2.95703125,-2.847900391,-5.950439453,503,-511,306
6028,-2.956054688,-2.842529297,-5.950927734,495,-482,294
6033,-2.957763672,-2.845947266,-5.9453125,489,-510,335
6039,-2.959228516,-2.846923828,-5.951904297,508,-482,300
6044,-2.958007813,-2.842773438,-5.940673828,474,-469,295
6049,-2.956054688,-2.842041016,-5.944335938,515,-471,316
6054,-2.95703125,-2.845703125,-5.940429688,476,-468,308
6059,-2.961914063,-2.846191406,-5.941894531,485,-472,329
6064,-2.960205078,-2.847900391,-5.942871094,473,-495,321
6069,-2.957519531,-2.842529297,-5.953857422,484,-474,324
6074,-2.956787109,-2.849365234,-5.942871094,495,-489,318
6079,-2.960205078,-2.843994141,-5.939453125,466,-503,315
6084,-2.960449219,-2.847900391,-5.943603516,490,-481,335
6089,-2.956298828,-2.847167969,-5.950683594,486,-489,319
6094,-2.959228516,-2.846679688,-5.946533203,484,-484,324
6099,-2.95703125,-2.84375,-5.947509766,487,-459,314
6104,-2.951416016,-2.848388672,-5.941650391,489,-464,339
6109,-2.956298828,-2.847167969,-5.945800781,475,-487,318
6114,-2.957763672,-2.844970703,-5.944091797,483,-484,305
6119,-2.957763672,-2.848876953,-5.946044922,489,-488,329
6124,-2.958740234,-2.845458984,-5.943603516,476,-489,330
6129,-2.958740234,-2.845458984,-5.950195313,503,-498,321
6134,-2.960693359,-2.850097656,-5.945800781,483,-473,307
6139,-2.957275391,-2.842773438,-5.946044922,492,-485,310
6144,-2.956787109,-2.848876953,-5.943847656,480,-473,325
6149,-2.957763672,-2.84375,-5.94140625,499,-470,290
6154,-2.955810547,-2.844238281,-5.94921875,479,-462,303
6159,-2.953125,-2.843261719,-5.942382813,490,-474,319
6164,-2.958007813,-2.843261719,-5.945556641,496,-485,315
6169,-2.958496094,-2.846191406,-5.949707031,497,-502,305
6175,-2.955810547,-2.848632813,-5.944580078,477,-484,302
6180,-2.958740234,-2.848876953,-5.947021484,512,-492,307
6185,-2.960693359,-2.847412109,-5.951904297,493,-483,306
6190,-2.95703125,-2.844726563,-5.942138672,488,-476,298
6195,-2.958007813,-2.842041016,-5.949462891,479,-484,331
6200,-2.958740234,-2.847900391,-5.948730469,505,-476,302
6205,-2.959716797,-2.846923828,-5.947021484,488,-500,328
6210,-2.961425781,-2.847412109,-5.946533203,477,-480,304
6215,-2.954589844,-2.845703125,-5.938476563,501,-479,311
6220,-2.959228516,-2.846923828,-5.94921875,504,-463,309
6225,-2.958496094,-2.848144531,-5.948730469,478,-459,296
6230,-2.954589844,-2.848144531,-5.946044922,487,-499,340
6235,-2.959960938,-2.844970703,-5.950439453,499,-493,328
6240,-2.955078125,-2.844970703,-5.948974609,490,-504,292
6245,-2.961425781,-2.842773438,-5.938232422,498,-478,305
6250,-2.956298828,-2.844970703,-5.935302734,484,-477,316
6255,-2.959472656,-2.843505859,-5.945556641,493,-462,324
6260,-2.959228516,-2.846191406,-5.948974609,507,-491,296
6265,-2.958007813,-2.842773438,-5.9453125,486,-472,332
6270,-2.954833984,-2.841796875,-5.951171875,478,-480,301
6275,-2.959960938,-2.842773438,-5.953613281,483,-469,333
6280,-2.958251953,-2.846679688,-5.940185547,485,-478,315
6285,-2.958007813,-2.842773438,-5.945556641,498,-511,331
6290,-2.955810547,-2.846679688,-5.95703125,509,-498,336
6295,-2.956542969,-2.843994141,-5.944824219,502,-444,327
6300,-2.958984375,-2.845458984,-5.949462891,488,-490,307
6305,-2.960693359,-2.845214844,-5.950683594,485,-494,350
6310,-2.958496094,-2.847167969,-5.941650391,504,-495,319
6316,-2.960693359,-2.844482422,-5.943359375,498,-486,341
6321,-2.956054688,-2.845214844,-5.945068359,473,-490,323
6326,-2.958251953,-2.843505859,-5.952148438,487,-502,304
6331,-2.958984375,-2.843261719,-5.944824219,485,-498,308
6336,-2.956787109,-2.839599609,-5.946533203,484,-501,320
6341,-2.953857422,-2.846679688,-5.941162109,484,-496,325
6346,-2.955810547,-2.84765625,-5.941894531,494,-479,323
6351,-2.95703125,-2.842773438,-5.945556641,482,-462,332
6356,-2.956787109,-2.846191406,-5.948730469,478,-474,302
6361,-2.95703125,-2.845458984,-5.943359375,511,-501,322
6366,-2.957763672,-2.847167969,-5.942871094,512,-492,327
6371,-2.959228516,-2.846435547,-5.947021484,481,-481,307
6376,-2.954101563,-2.846679688,-5.945556641,494,-488,301
6381,-2.956542969,-2.843261719,-5.950683594,492,-501,315
6386,-2.958251953,-2.846435547,-5.944335938,469,-485,325
6391,-2.956787109,-2.844970703,-5.949951172,510,-476,301
6396,-2.956298828,-2.843994141,-5.954101563,476,-490,341
6401,-2.959960938,-2.846679688,-5.946289063,499,-485,314
6406,-2.954589844,-2.843505859,-5.943359375,500,-491,313
6411,-2.960693359,-2.843994141,-5.946044922,507,-476,333
6416,-2.958740234,-2.84375,-5.943359375,509,-459,320
6421,-2.957519531,-2.843261719,-5.945556641,492,-467,309
6426,-2.958984375,-2.844238281,-5.947998047,495,-473,326
6431,-2.953857422,-2.844726563,-5.947509766,491,-500,322
6436,-2.956542969,-2.843261719,-5.946777344,487,-504,324
6441,-2.95703125,-2.844970703,-5.941894531,494,-505,277
6446,-2.956787109,-2.848632813,-5.943603516,492,-470,319
6452,-2.957275391,-2.848388672,-5.9453125,501,-485,320
6457,-2.956054688,-2.843017578,-5.944091797,490,-476,304
6462,-2.959472656,-2.845458984,-5.940917969,486,-496,320
6467,-2.95703125,-2.845214844,-5.949707031,510,-478,328
6472,-2.957519531,-2.83984375,-5.947509766,482,-496,307
6477,-2.957275391,-2.842529297,-5.944335938,489,-479,331
6482,-2.959960938,-2.842529297,-5.946289063,478,-487,316
6487,-2.957275391,-2.845214844,-5.948242188,465,-476,308
6492,-2.957275391,-2.845458984,-5.945068359,476,-493,299
6497,-2.958251953,-2.844482422,-5.946777344,490,-511,315
6502,-2.959228516,-2.843505859,-5.942382813,485,-496,295
6507,-2.959228516,-2.848876953,-5.9453125,469,-480,300
6512,-2.959472656,-2.843017578,-5.948974609,508,-488,318
6517,-2.9609375,-2.84765625,-5.948242188,507,-480,322
6522,-2.956054688,-2.841796875,-5.94921875,520,-464,312
6527,-2.955810547,-2.844970703,-5.943359375,500,-488,314
6532,-2.953369141,-2.841308594,-5.946044922,498,-495,335
6537,-2.961669922,-2.843017578,-5.955078125,506,-495,318
6542,-2.954345703,-2.841552734,-5.945800781,478,-498,313
6547,-2.957275391,-2.844238281,-5.948486328,491,-530,317
6552,-2.956787109,-2.846679688,-5.941162109,475,-496,320
6557,-2.955810547,-2.843994141,-5.936279297,491,-502,312
6562,-2.958984375,-2.844970703,-5.947021484,489,-480,324
6567,-2.958740234,-2.843505859,-5.948242188,499,-489,329
6572,-2.956054688,-2.84375,-5.943847656,495,-474,306
6577,-2.960205078,-2.843017578,-5.946777344,499,-489,310
6582,-2.956787109,-2.843017578,-5.947021484,503,-466,309
6588,-2.957519531,-2.843994141,-5.951660156,512,-484,320
6593,-2.958251953,-2.847900391,-5.946777344,491,-488,304
6598,-2.958007813,-2.845458984,-5.943115234,488,-498,322
6603,-2.958984375,-2.849609375,-5.949462891,476,-451,311
6608,-2.953857422,-2.845947266,-5.9453125,492,-501,326
6613,-2.958984375,-2.845458984,-5.936523438,481,-494,320
6618,-2.960449219,-2.846435547,-5.950927734,487,-496,325
6623,-2.959716797,-2.843505859,-5.956298828,497,-486,296
6628,-2.959716797,-2.849365234,-5.947021484,493,-461,321
6633,-2.955810547,-2.84765625,-5.947998047,503,-475,306
6638,-2.956787109,-2.845947266,-5.946044922,503,-497,315
6643,-2.959228516,-2.846191406,-5.945556641,491,-484,312
6648,-2.957519531,-2.844970703,-5.944335938,495,-497,305
6653,-2.956298828,-2.844238281,-5.945800781,495,-479,317
6658,-2.957519531,-2.842041016,-5.950927734,478,-501,322
6663,-2.959472656,-2.84765625,-5.954589844,494,-501,317
6668,-2.956054688,-2.844970703,-5.947021484,504,-485,300
6673,-2.960449219,-2.843505859,-5.947753906,486,-489,340
6678,-2.959716797,-2.84375,-5.939453125,489,-501,311
6683,-2.955078125,-2.848388672,-5.9453125,504,-486,325
6688,-2.957763672,-2.846679688,-5.948242188,504,-485,325
6693,-2.959472656,-2.845214844,-5.943115234,493,-484,334
6698,-2.962402344,-2.845703125,-5.947265625,481,-482,312
6703,-2.956298828,-2.845214844,-5.952636719,502,-484,314
6708,-2.958251953,-2.848876953,-5.947998047,479,-479,324
6713,-2.960449219,-2.844726563,-5.942382813,492,-504,312
6718,-2.957763672,-2.844238281,-5.948486328,520,-485,307
6723,-2.958496094,-2.847167969,-5.951904297,502,-474,304
6729,-2.956542969,-2.844970703,-5.947753906,469,-482,312
6734,-2.958007813,-2.84375,-5.947021484,509,-484,320
6739,-2.958496094,-2.84375,-5.953857422,499,-476,320
6744,-2.955810547,-2.844726563,-5.943359375,487,-493,323
6749,-2.957763672,-2.845458984,-5.946533203,481,-515,311
6754,-2.958007813,-2.845703125,-5.946533203,491,-496,320
6759,-2.953613281,-2.845947266,-5.948486328,474,-496,311
6764,-2.958251953,-2.843505859,-5.944824219,485,-498,316
6769,-2.955322266,-2.844482422,-5.944580078,494,-487,325
6774,-2.958007813,-2.841796875,-5.952148438,503,-495,304
6779,-2.956542969,-2.843261719,-5.948242188,498,-485,339
6784,-2.958740234,-2.847412109,-5.943359375,498,-492,311
6789,-2.958251953,-2.845214844,-5.944580078,504,-478,324
6794,-2.958251953,-2.849365234,-5.947998047,496,-487,325
6799,-2.959960938,-2.845458984,-5.943359375,484,-505,307
6804,-2.953857422,-2.845214844,-5.951660156,478,-489,320
6809,-2.955810547,-2.845214844,-5.943603516,472,-495,342
6814,-2.958496094,-2.846679688,-5.945800781,504,-494,323
6819,-2.957275391,-2.844482422,-5.943603516,478,-478,303
6824,-2.957763672,-2.843505859,-5.951416016,483,-493,319
6829,-2.95703125,-2.844970703,-5.945068359,493,-473,337
6834,-2.957275391,-2.847900391,-5.948242188,496,-497,316
6839,-2.958496094,-2.842285156,-5.950195313,500,-482,316
6844,-2.958984375,-2.843017578,-5.943847656,483,-486,331
6849,-2.957275391,-2.845214844,-5.949951172,475,-487,312
6854,-2.955322266,-2.846435547,-5.943603516,488,-501,319
6859,-2.963134766,-2.842529297,-5.946777344,481,-476,304
6865,-2.959228516,-2.842529297,-5.949707031,497,-482,325
6870,-2.958984375,-2.844970703,-5.9453125,507,-457,305
6875,-2.958251953,-2.843017578,-5.947265625,490,-481,302
6880,-2.960693359,-2.847412109,-5.950195313,516,-487,322
6885,-2.959472656,-2.845947266,-5.947265625,505,-485,314
6890,-2.958984375,-2.844482422,-5.953613281,495,-485,345
6895,-2.956054688,-2.844970703,-5.939208984,479,-465,312
6900,-2.955566406,-2.84765625,-5.948730469,487,-481,328
6905,-2.953369141,-2.846679688,-5.949707031,479,-496,322
6910,-2.956542969,-2.843017578,-5.944335938,481,-500,320
6915,-2.956054688,-2.846191406,-5.942382813,499,-466,325
6920,-2.95703125,-2.843017578,-5.955078125,496,-492,327
6925,-2.9609375,-2.844970703,-5.940429688,493,-502,313
6930,-2.956542969,-2.845458984,-5.943115234,516,-468,319
6935,-2.956787109,-2.84375,-5.956054688,469,-466,313
6940,-2.953857422,-2.848144531,-5.955078125,509,-482,316
6945,-2.958251953,-2.845214844,-5.934326172,489,-484,311
6950,-2.960693359,-2.846923828,-5.953613281,490,-475,323
6955,-2.954589844,-2.845703125,-5.9453125,481,-484,306
6960,-2.956787109,-2.844238281,-5.943359375,489,-490,310
6965,-2.955810547,-2.845214844,-5.947753906,465,-502,317
6970,-2.958984375,-2.845703125,-5.946533203,495,-474,301
6975,-2.952636719,-2.845214844,-5.943359375,498,-499,295
6980,-2.953369141,-2.844482422,-5.948486328,502,-507,324
6985,-2.958984375,-2.842285156,-5.943359375,477,-483,297
6990,-2.958251953,-2.844238281,-5.948730469,500,-483,321
6995,-2.9609375,-2.844238281,-5.942382813,483,-504,310
7000,-2.957275391,-2.843261719,-5.950439453,495,-492,336
7006,-2.9609375,-2.847900391,-5.950683594,469,-489,333
7011,-2.959716797,-2.844726563,-5.945068359,508,-483,310
7016,-2.957763672,-2.845703125,-5.944091797,507,-484,312
7021,-2.958496094,-2.843505859,-5.944580078,477,-477,328
7026,-2.960693359,-2.844238281,-5.936767578,488,-457,330
7031,-2.955566406,-2.844726563,-5.944091797,493,-484,302
7036,-2.958984375,-2.842285156,-5.948730469,467,-474,302
7041,-2.957519531,-2.843017578,-5.949951172,491,-473,318
7046,-2.95703125,-2.844482422,-5.946044922,497,-487,301
7051,-2.959716797,-2.849853516,-5.946533203,478,-483,323
7056,-2.959472656,-2.842529297,-5.945800781,467,-469,311
7061,-2.957763672,-2.842773438,-5.948730469,486,-479,321
7066,-2.958007813,-2.843017578,-5.951904297,466,-468,307
7071,-2.953125,-2.843505859,-5.948730469,483,-483,313
7076,-2.957763672,-2.844238281,-5.944580078,504,-492,318
7081,-2.956054688,-2.844482422,-5.942871094,490,-470,311
7086,-2.960449219,-2.84375,-5.946044922,500,-493,310
7091,-2.956542969,-2.843994141,-5.947509766,503,-471,317
7096,-2.954833984,-2.849121094,-5.948486328,482,-480,312
7101,-2.955322266,-2.840087891,-5.944091797,476,-467,323
7106,-2.956542969,-2.842773438,-5.953369141,474,-500,322
7111,-2.956542969,-2.842285156,-5.946777344,518,-507,333
7116,-2.958984375,-2.845947266,-5.947265625,510,-490,297
7121,-2.957519531,-2.846923828,-5.952880859,508,-508,321
7126,-2.955566406,-2.844238281,-5.944335938,494,-482,346
7131,-2.95703125,-2.846923828,-5.942871094,490,-472,318
7136,-2.957519531,-2.844970703,-5.947021484,499,-510,311
7142,-2.956298828,-2.846679688,-5.944580078,484,-469,318
7147,-2.95703125,-2.844238281,-5.940917969,516,-478,317
7152,-2.960205078,-2.846923828,-5.943603516,489,-473,310
7157,-2.958984375,-2.848388672,-5.944091797,497,-482,323
7162,-2.959228516,-2.840820313,-5.942138672,502,-512,316
7167,-2.956298828,-2.84375,-5.949707031,494,-502,334
7172,-2.957275391,-2.844970703,-5.947998047,477,-476,297
7177,-2.955566406,-2.84765625,-5.946777344,479,-481,331
7182,-2.955810547,-2.845458984,-5.946044922,513,-477,291
7187,-2.963378906,-2.841552734,-5.947509766,474,-476,317
7192,-2.959228516,-2.839599609,-5.942871094,501,-478,328
7197,-2.957519531,-2.844970703,-5.946533203,491,-481,312
7202,-2.962158203,-2.84375,-5.948730469,500,-491,308
7207,-2.955322266,-2.843505859,-5.955810547,497,-465,340
7212,-2.957519531,-2.844238281,-5.945068359,486,-496,303
7217,-2.958007813,-2.843017578,-5.943847656,495,-498,354
7222,-2.958251953,-2.845214844,-5.953125,470,-475,317
7227,-2.954589844,-2.844482422,-5.945556641,496,-475,306
7232,-2.958984375,-2.847900391,-5.943115234,492,-506,335
7237,-2.952636719,-2.843994141,-5.94921875,465,-480,326
7242,-2.957275391,-2.838623047,-5.948730469,503,-488,312
7247,-2.958984375,-2.844970703,-5.947021484,489,-493,295
7252,-2.956542969,-2.843994141,-5.946777344,510,-469,298
7257,-2.957763672,-2.846923828,-5.956787109,510,-480,319
7262,-2.959472656,-2.846435547,-5.946289063,505,-464,325
7267,-2.959716797,-2.843994141,-5.943847656,493,-492,327
7272,-2.956542969,-2.842529297,-5.946533203,468,-513,330
7277,-2.954345703,-2.844970703,-5.947021484,501,-481,320
7283,-2.957275391,-2.844482422,-5.947998047,511,-472,340
7288,-2.958007813,-2.843994141,-5.952148438,508,-488,295
7293,-2.959960938,-2.846923828,-5.946777344,482,-487,315
7298,-2.959228516,-2.845703125,-5.94921875,481,-501,337
7303,-2.957763672,-2.843994141,-5.950683594,486,-484,334
7308,-2.960205078,-2.842773438,-5.953613281,485,-480,329
7313,-2.957275391,-2.847412109,-5.943115234,498,-488,308
7318,-2.958007813,-2.844970703,-5.947509766,498,-473,328
7323,-2.95703125,-2.843994141,-5.948242188,502,-490,304
7328,-2.955566406,-2.843505859,-5.948242188,501,-501,298
7333,-2.956054688,-2.843261719,-5.942626953,481,-489,326
7338,-2.957519531,-2.844482422,-5.946777344,487,-479,318
7343,-2.959716797,-2.842773438,-5.950927734,490,-484,306
7348,-2.956298828,-2.848144531,-5.944580078,494,-478,319
7353,-2.961181641,-2.846679688,-5.950927734,488,-502,314
7358,-2.961425781,-2.845947266,-5.947021484,516,-492,294
7363,-2.956542969,-2.846679688,-5.951171875,500,-481,314
7368,-2.955322266,-2.843505859,-5.938232422,465,-509,324
7373,-2.957763672,-2.846923828,-5.947021484,494,-497,319
7378,-2.958496094,-2.844482422,-5.949707031,494,-488,299
7383,-2.95703125,-2.841796875,-5.951416016,505,-480,344
7388,-2.958007813,-2.845947266,-5.948486328,491,-473,308
7393,-2.955810547,-2.846191406,-5.949707031,474,-489,332
7398,-2.958251953,-2.840576172,-5.948242188,490,-494,327
7403,-2.956787109,-2.842773438,-5.946044922,501,-498,309
7408,-2.957519531,-2.843261719,-5.950683594,470,-472,318
7413,-2.958007813,-2.844482422,-5.947998047,481,-492,319
7419,-2.956054688,-2.842529297,-5.951660156,490,-477,334
7424,-2.960693359,-2.842529297,-5.948486328,495,-484,324
7429,-2.95703125,-2.845214844,-5.947509766,496,-484,311
7434,-2.960449219,-2.847900391,-5.942138672,506,-482,298
7439,-2.953125,-2.843017578,-5.947753906,504,-494,307
7444,-2.955078125,-2.845947266,-5.944580078,497,-478,325
7449,-2.955566406,-2.843017578,-5.947509766,503,-485,336
7454,-2.957275391,-2.846435547,-5.946044922,481,-492,331
7459,-2.957275391,-2.843505859,-5.941650391,488,-479,317
7464,-2.958496094,-2.844482422,-5.9453125,483,-481,338
7469,-2.958740234,-2.845947266,-5.947265625,484,-493,311
7474,-2.957275391,-2.844482422,-5.951660156,499,-473,336
7479,-2.956542969,-2.84375,-5.947265625,494,-510,318
7484,-2.958984375,-2.843017578,-5.949707031,501,-480,307
7489,-2.956542969,-2.842285156,-5.947021484,482,-491,309
7494,-2.958251953,-2.844238281,-5.94140625,501,-492,310
7499,-2.954101563,-2.840332031,-5.947509766,490,-474,314
7504,-2.952880859,-2.842529297,-5.947265625,493,-480,327
7509,-2.956054688,-2.845214844,-5.942382813,501,-482,301
7514,-2.95703125,-2.843505859,-5.945556641,463,-483,305
7519,-2.958984375,-2.846923828,-5.953857422,484,-483,319
7524,-2.957275391,-2.843505859,-5.948486328,491,-479,309
7529,-2.957763672,-2.845458984,-5.953125,499,-485,331
7534,-2.957763672,-2.847167969,-5.949951172,476,-464,303
7539,-2.955078125,-2.847167969,-5.952880859,488,-470,319
7544,-2.957519531,-2.844238281,-5.949707031,485,-498,311
7549,-2.958251953,-2.843994141,-5.945068359,491,-497,310
7555,-2.958740234,-2.845947266,-5.948974609,497,-494,314
7560,-2.954833984,-2.844726563,-5.937988281,485,-476,314
7565,-2.956542969,-2.844482422,-5.943359375,473,-491,320
7570,-2.957763672,-2.842773438,-5.951660156,487,-466,304
7575,-2.956787109,-2.844482422,-5.947265625,505,-485,315
7580,-2.958740234,-2.84765625,-5.944824219,472,-495,323
7585,-2.958740234,-2.844970703,-5.957275391,491,-490,312
7590,-2.95703125,-2.846679688,-5.946044922,474,-485,311
7595,-2.953369141,-2.844726563,-5.945556641,489,-467,314
7600,-2.956298828,-2.843505859,-5.952636719,511,-476,321
7605,-2.957519531,-2.842773438,-5.946533203,476,-495,309
7610,-2.959228516,-2.846435547,-5.946533203,505,-476,344
7615,-2.958007813,-2.848632813,-5.9453125,492,-461,311
7620,-2.956542969,-2.844238281,-5.948974609,481,-472,321
7625,-2.959228516,-2.847167969,-5.946289063,493,-478,340
7630,-2.954833984,-2.848144531,-5.946044922,501,-495,321
7635,-2.956298828,-2.849121094,-5.947753906,491,-476,313
7640,-2.9609375,-2.845947266,-5.948486328,484,-482,327
7645,-2.958496094,-2.845947266,-5.952880859,493,-478,293
7650,-2.961914063,-2.842041016,-5.939941406,471,-475,300
7655,-2.959472656,-2.846435547,-5.952148438,483,-483,316
7660,-2.959960938,-2.847412109,-5.946533203,494,-500,309
7665,-2.958984375,-2.843017578,-5.940429688,478,-453,333
7670,-2.958007813,-2.848144531,-5.946777344,507,-487,320
7675,-2.958496094,-2.843994141,-5.944335938,513,-489,303
7680,-2.958496094,-2.848876953,-5.949951172,491,-462,317
7685,-2.954833984,-2.845458984,-5.949951172,500,-478,307
7690,-2.957763672,-2.844238281,-5.944824219,499,-493,316
7696,-2.95703125,-2.846191406,-5.945556641,501,-482,302
7701,-2.962402344,-2.845703125,-5.942138672,492,-482,313
7706,-2.956787109,-2.843505859,-5.947509766,502,-490,306
7711,-2.958984375,-2.845947266,-5.951171875,469,-463,305
7716,-2.953613281,-2.84375,-5.944335938,497,-487,327
7721,-2.960205078,-2.848144531,-5.948242188,470,-491,309
7726,-2.960693359,-2.847412109,-5.950195313,513,-499,317
7731,-2.955322266,-2.844238281,-5.945556641,512,-471,339
7736,-2.956542969,-2.845214844,-5.947265625,495,-459,312
7741,-2.959716797,-2.844238281,-5.945800781,506,-462,314
7746,-2.956054688,-2.844726563,-5.945556641,491,-476,300
7751,-2.953613281,-2.843505859,-5.942138672,462,-512,305
7756,-2.952392578,-2.843017578,-5.945800781,494,-472,300
7761,-2.963134766,-2.84765625,-5.942626953,489,-494,306
7766,-2.960449219,-2.845214844,-5.949707031,491,-488,315
7771,-2.959960938,-2.83984375,-5.948730469,495,-462,303
7776,-2.961425781,-2.845947266,-5.944091797,490,-485,309
7781,-2.959472656,-2.841064453,-5.950195313,510,-469,321
7786,-2.956298828,-2.846923828,-5.950439453,485,-494,330
7791,-2.955322266,-2.844482422,-5.941650391,483,-459,302
7796,-2.960205078,-2.842529297,-5.949707031,496,-496,304
7801,-2.959960938,-2.84375,-5.942382813,492,-478,321
7806,-2.958740234,-2.84375,-5.946777344,487,-497,317
7811,-2.958496094,-2.842041016,-5.946044922,466,-458,313
7816,-2.955566406,-2.841552734,-5.947753906,505,-486,338
7821,-2.960449219,-2.843994141,-5.947021484,497,-480,327
7826,-2.959228516,-2.846435547,-5.944335938,493,-507,313
7832,-2.959472656,-2.843017578,-5.944824219,517,-464,297
7837,-2.957275391,-2.845947266,-5.949707031,494,-479,304
7842,-2.958251953,-2.847167969,-5.943359375,491,-490,292
7847,-2.955566406,-2.845703125,-5.943359375,479,-459,312
7852,-2.955566406,-2.841308594,-5.946289063,496,-511,311
7857,-2.953369141,-2.842773438,-5.947021484,491,-508,315
7862,-2.959472656,-2.842529297,-5.950927734,495,-514,331
7867,-2.960449219,-2.841796875,-5.946533203,481,-504,327
7872,-2.957763672,-2.844238281,-5.951416016,502,-446,317
7877,-2.956787109,-2.841308594,-5.946044922,511,-489,330
7882,-2.958984375,-2.842529297,-5.947509766,499,-469,324
7887,-2.957763672,-2.844726563,-5.945068359,486,-484,312
7892,-2.954833984,-2.841796875,-5.950683594,491,-479,318
7897,-2.955566406,-2.845703125,-5.947998047,484,-479,295
7902,-2.95703125,-2.845703125,-5.955078125,493,-493,302
7907,-2.958740234,-2.845947266,-5.951171875,500,-506,330
7912,-2.961181641,-2.846679688,-5.950927734,497,-475,310
7917,-2.957763672,-2.84765625,-5.958740234,481,-489,316
7922,-2.957763672,-2.842529297,-5.948486328,499,-479,321
7927,-2.959228516,-2.840332031,-5.947021484,499,-489,320
7932,-2.95703125,-2.844726563,-5.944580078,491,-480,314
7937,-2.958740234,-2.849609375,-5.952392578,490,-494,287
7942,-2.957763672,-2.847900391,-5.946777344,517,-497,325
7947,-2.958740234,-2.846679688,-5.943115234,492,-491,321
7952,-2.959228516,-2.846191406,-5.950439453,474,-467,306
7957,-2.957519531,-2.844726563,-5.944091797,478,-479,325
7962,-2.959716797,-2.846923828,-5.949951172,470,-483,312
7967,-2.952392578,-2.845703125,-5.951660156,485,-483,300
7973,-2.958496094,-2.84765625,-5.952880859,503,-477,308
7978,-2.956054688,-2.846435547,-5.952636719,498,-478,301
7983,-2.957275391,-2.844238281,-5.952392578,505,-468,315
7988,-2.959716797,-2.845458984,-5.951660156,505,-474,321
7993,-2.956542969,-2.844970703,-5.946777344,501,-491,328
7998,-2.961425781,-2.846679688,-5.943359375,488,-486,308
8003,-2.960693359,-2.845214844,-5.945068359,482,-492,304
8008,-2.961425781,-2.844726563,-5.946044922,481,-487,307
8013,-2.956542969,-2.843994141,-5.952880859,470,-483,331
8018,-2.956054688,-2.844482422,-5.948486328,500,-499,322
8023,-2.958251953,-2.846191406,-5.948730469,510,-499,319
8028,-2.958740234,-2.845458984,-5.946289063,472,-490,321
8033,-2.958496094,-2.84375,-5.950439453,491,-470,304
8038,-2.958496094,-2.842041016,-5.944580078,506,-501,308
8043,-2.959716797,-2.847900391,-5.944824219,485,-483,335
8048,-2.956542969,-2.846923828,-5.951660156,499,-496,343
8053,-2.957275391,-2.850585938,-5.948242188,480,-510,330
8058,-2.955566406,-2.843017578,-5.9375,480,-499,321
8063,-2.959960938,-2.843017578,-5.9453125,527,-488,333
8068,-2.9609375,-2.843994141,-5.950683594,470,-484,321
8073,-2.958007813,-2.843994141,-5.948486328,485,-493,319
8078,-2.95703125,-2.844482422,-5.947265625,486,-464,311
8083,-2.955322266,-2.846435547,-5.946533203,503,-486,328
8088,-2.956054688,-2.843994141,-5.948974609,485,-477,342
8093,-2.955322266,-2.84765625,-5.947021484,485,-493,309
8098,-2.956787109,-2.843261719,-5.946044922,496,-493,304
8103,-2.955322266,-2.849365234,-5.950195313,490,-509,315
8109,-2.959472656,-2.848388672,-5.939941406,497,-492,319
8114,-2.959228516,-2.847167969,-5.948242188,472,-493,315
8119,-2.958496094,-2.84375,-5.950195313,488,-487,292
8124,-2.960205078,-2.84375,-5.941894531,474,-481,299
8129,-2.957519531,-2.843261719,-5.947021484,490,-463,322
8134,-2.960205078,-2.844726563,-5.948486328,482,-470,307
8139,-2.959960938,-2.847900391,-5.950439453,490,-462,334
8144,-2.954589844,-2.844482422,-5.938720703,485,-475,338
8149,-2.960205078,-2.841308594,-5.943847656,489,-465,330
8154,-2.959228516,-2.848144531,-5.951660156,487,-466,334
8159,-2.959960938,-2.845703125,-5.945556641,492,-466,298
8164,-2.958984375,-2.848144531,-5.946533203,491,-500,326
8169,-2.956787109,-2.843994141,-5.947998047,478,-499,307
8174,-2.959472656,-2.845214844,-5.944091797,493,-484,307
8179,-2.956787109,-2.84765625,-5.946533203,504,-473,324
8184,-2.956542969,-2.84375,-5.947753906,517,-481,322
8189,-2.958740234,-2.841796875,-5.949951172,506,-479,319
8194,-2.956054688,-2.844726563,-5.944335938,502,-456,325
8199,-2.955322266,-2.849365234,-5.943359375,504,-486,327
8204,-2.959228516,-2.847167969,-5.951660156,484,-482,308
8209,-2.957275391,-2.845703125,-5.947021484,497,-481,326
8214,-2.960449219,-2.844726563,-5.939453125,491,-484,304
8219,-2.961181641,-2.844726563,-5.953613281,488,-498,305
8224,-2.957275391,-2.84375,-5.94921875,471,-510,318
8229,-2.958251953,-2.847167969,-5.941894531,482,-501,316
8234,-2.956787109,-2.842773438,-5.948974609,522,-508,301
8239,-2.954833984,-2.848388672,-5.948730469,510,-506,331
8244,-2.961181641,-2.848632813,-5.945800781,508,-483,320
8250,-2.953613281,-2.843261719,-5.947998047,497,-480,327
8255,-2.955322266,-2.845947266,-5.947265625,481,-476,347
8260,-2.963623047,-2.848144531,-5.949707031,502,-491,311
8265,-2.955078125,-2.845703125,-5.944824219,508,-477,328
8270,-2.956787109,-2.843994141,-5.941894531,476,-488,319
8275,-2.957275391,-2.845703125,-5.948486328,488,-509,312
8280,-2.958496094,-2.839599609,-5.951904297,496,-493,335
8285,-2.962402344,-2.846435547,-5.952148438,497,-467,329
8290,-2.959716797,-2.843505859,-5.944824219,514,-456,317
8295,-2.960205078,-2.843505859,-5.946044922,506,-500,332
8300,-2.958984375,-2.846923828,-5.944091797,496,-479,323
8305,-2.961425781,-2.847167969,-5.945800781,491,-471,313
8310,-2.960205078,-2.843994141,-5.949462891,483,-500,304
8315,-2.957519531,-2.845214844,-5.937744141,478,-485,321
8320,-2.957519531,-2.847412109,-5.958740234,489,-486,325
8325,-2.958984375,-2.842285156,-5.949462891,460,-504,319
8330,-2.958007813,-2.84375,-5.943359375,480,-489,313
8335,-2.955810547,-2.846923828,-5.950927734,494,-499,306
8340,-2.961181641,-2.843994141,-5.940917969,489,-476,323
8345,-2.959716797,-2.845947266,-5.946533203,499,-492,321
8350,-2.956542969,-2.845458984,-5.948974609,485,-478,327
8355,-2.960449219,-2.841064453,-5.944335938,503,-468,305
8360,-2.959960938,-2.849365234,-5.947265625,488,-479,306
8365,-2.959472656,-2.847167969,-5.940917969,491,-493,321
8370,-2.959228516,-2.843505859,-5.951171875,485,-507,331
8375,-2.956787109,-2.84375,-5.944580078,472,-492,331
8380,-2.958007813,-2.848388672,-5.944335938,503,-508,334
8386,-2.958007813,-2.847412109,-5.948486328,490,-493,311
8391,-2.958740234,-2.842041016,-5.942382813,510,-470,341
8396,-2.954833984,-2.846679688,-5.947021484,514,-471,307
8401,-2.956542969,-2.842285156,-5.940429688,504,-481,291
8406,-2.956542969,-2.846191406,-5.944335938,475,-472,330
8411,-2.955810547,-2.846191406,-5.948242188,499,-480,319
8416,-2.960449219,-2.843994141,-5.943115234,480,-487,324
8421,-2.955322266,-2.844238281,-5.947998047,465,-492,322
8426,-2.959472656,-2.848144531,-5.940673828,503,-487,316
8431,-2.956787109,-2.84765625,-5.944091797,470,-501,296
8436,-2.958007813,-2.844482422,-5.946777344,485,-488,339
8441,-2.957519531,-2.845947266,-5.947998047,500,-470,337
8446,-2.957519531,-2.845947266,-5.952148438,490,-487,319
8451,-2.957275391,-2.847412109,-5.952392578,491,-493,306
8456,-2.958251953,-2.844970703,-5.941650391,494,-478,331
8461,-2.956542969,-2.848144531,-5.944091797,486,-495,308
8466,-2.958496094,-2.848144531,-5.9453125,496,-491,327
8471,-2.958496094,-2.845214844,-5.950439453,491,-476,321
8476,-2.956542969,-2.844970703,-5.938476563,489,-476,312
8481,-2.95703125,-2.842773438,-5.952392578,468,-477,335
8486,-2.960449219,-2.844238281,-5.94921875,480,-490,342
8491,-2.958740234,-2.845703125,-5.948486328,488,-491,307
8496,-2.958496094,-2.844726563,-5.938720703,483,-488,317
8501,-2.95703125,-2.845947266,-5.94921875,493,-497,316
8506,-2.955810547,-2.843994141,-5.943115234,499,-465,299
8511,-2.958984375,-2.849853516,-5.948242188,501,-475,325
8516,-2.956542969,-2.845703125,-5.947265625,483,-495,301
8522,-2.954345703,-2.847900391,-5.946533203,515,-480,323
8527,-2.956787109,-2.847412109,-5.953125,477,-488,308
8532,-2.956787109,-2.844970703,-5.939208984,496,-482,316
8537,-2.958496094,-2.845458984,-5.948242188,478,-488,323
8542,-2.956054688,-2.846191406,-5.946044922,491,-461,292
8547,-2.956787109,-2.846191406,-5.948730469,486,-497,326
8552,-2.957519531,-2.843505859,-5.952880859,482,-470,349
8557,-2.955322266,-2.848876953,-5.944824219,492,-471,326
8562,-2.957275391,-2.844238281,-5.941650391,501,-511,307
8567,-2.958984375,-2.844482422,-5.953369141,492,-485,317
8572,-2.958251953,-2.845458984,-5.947998047,510,-489,287
8577,-2.957519531,-2.844726563,-5.943603516,494,-468,310
8582,-2.956787109,-2.846191406,-5.942871094,514,-478,291
8587,-2.958984375,-2.845458984,-5.951904297,486,-506,290
8592,-2.957275391,-2.847900391,-5.939208984,474,-502,322
8597,-2.959472656,-2.844482422,-5.952880859,499,-490,317
8602,-2.953369141,-2.847412109,-5.950439453,480,-485,323
8607,-2.958984375,-2.845214844,-5.94921875,522,-463,323
8612,-2.960693359,-2.844726563,-5.9453125,489,-480,296
8617,-2.957275391,-2.845703125,-5.950927734,485,-484,307
8622,-2.960205078,-2.844726563,-5.9453125,506,-497,296
8627,-2.957519531,-2.847900391,-5.944580078,496,-483,299
8632,-2.958251953,-2.844970703,-5.945800781,489,-467,300
8637,-2.958496094,-2.848388672,-5.944091797,503,-484,296
8642,-2.955078125,-2.843261719,-5.946289063,494,-477,304
8647,-2.956787109,-2.845458984,-5.946044922,482,-462,311
8652,-2.959228516,-2.840820313,-5.951171875,482,-462,308
8657,-2.958740234,-2.844726563,-5.948730469,499,-473,299
8663,-2.95703125,-2.846435547,-5.941894531,470,-476,324
8668,-2.957763672,-2.83984375,-5.944335938,508,-501,297
8673,-2.95703125,-2.845458984,-5.950683594,481,-488,327
8678,-2.958496094,-2.842529297,-5.948486328,485,-472,305
8683,-2.956054688,-2.845947266,-5.951904297,493,-475,318
8688,-2.957763672,-2.847167969,-5.951171875,506,-490,321
8693,-2.960693359,-2.847412109,-5.943603516,494,-494,306
8698,-2.957763672,-2.843505859,-5.944335938,496,-492,304
8703,-2.956542969,-2.842773438,-5.953613281,486,-471,294
8708,-2.957519531,-2.845214844,-5.947265625,488,-489,321
8713,-2.953857422,-2.845214844,-5.948730469,500,-507,323
8718,-2.955810547,-2.840820313,-5.956054688,490,-463,301
8723,-2.95703125,-2.844726563,-5.94921875,503,-485,316
8728,-2.959472656,-2.848144531,-5.94921875,481,-485,330
8733,-2.958007813,-2.844482422,-5.947265625,494,-492,296
8738,-2.958984375,-2.849121094,-5.949707031,505,-474,300
8743,-2.959960938,-2.845947266,-5.945068359,499,-478,323
8748,-2.958251953,-2.843261719,-5.948730469,474,-486,316
8753,-2.958496094,-2.848144531,-5.944091797,476,-456,322
8758,-2.960449219,-2.844726563,-5.943359375,500,-500,311
8763,-2.958251953,-2.844238281,-5.941162109,466,-483,327
8768,-2.955322266,-2.848632813,-5.946289063,475,-487,317
8773,-2.95703125,-2.848144531,-5.939453125,498,-476,319
8778,-2.958496094,-2.845458984,-5.946777344,501,-471,332
8783,-2.955810547,-2.847900391,-5.953369141,502,-483,306
8788,-2.956787109,-2.843994141,-5.947021484,499,-494,334
8793,-2.955810547,-2.844726563,-5.947265625,506,-479,311
8799,-2.958984375,-2.845947266,-5.952880859,495,-483,303
8804,-2.955322266,-2.844482422,-5.947265625,495,-474,321
8809,-2.955810547,-2.844726563,-5.945800781,485,-494,312
8814,-2.960693359,-2.845947266,-5.947021484,491,-481,310
8819,-2.957275391,-2.847167969,-5.952880859,488,-504,314
8824,-2.957275391,-2.846679688,-5.942626953,484,-463,308
8829,-2.959716797,-2.846923828,-5.943603516,511,-480,316
8834,-2.958496094,-2.845703125,-5.950683594,516,-475,335
8839,-2.954833984,-2.845703125,-5.939697266,515,-468,332
8844,-2.958496094,-2.845947266,-5.943847656,503,-483,312
8849,-2.956054688,-2.845214844,-5.945068359,484,-488,318
8854,-2.956054688,-2.845703125,-5.946533203,476,-478,323
8859,-2.961425781,-2.845703125,-5.947021484,492,-506,319
8864,-2.958496094,-2.845458984,-5.948974609,476,-492,310
8869,-2.9609375,-2.847167969,-5.939941406,480,-485,316
8874,-2.954833984,-2.848632813,-5.948486328,495,-468,312
8879,-2.957763672,-2.846191406,-5.947998047,486,-469,313
8884,-2.955322266,-2.843994141,-5.945556641,503,-499,324
8889,-2.956787109,-2.84765625,-5.953125,495,-495,320
8894,-2.958251953,-2.846435547,-5.943847656,514,-490,337
8899,-2.9609375,-2.84765625,-5.952392578,506,-491,307
8904,-2.954589844,-2.845947266,-5.951660156,489,-499,324
8909,-2.958740234,-2.847900391,-5.945800781,480,-495,332
8914,-2.955566406,-2.844726563,-5.948242188,483,-472,305
8919,-2.959716797,-2.843994141,-5.951416016,490,-474,317
8924,-2.959228516,-2.843017578,-5.950927734,503,-486,318
8929,-2.956787109,-2.848632813,-5.955566406,495,-467,315
8934,-2.953857422,-2.844970703,-5.943603516,487,-455,306
8940,-2.955078125,-2.84765625,-5.94921875,489,-469,312
8945,-2.959472656,-2.84765625,-5.950927734,498,-468,315
8950,-2.956542969,-2.843994141,-5.943115234,491,-495,332
8955,-2.957519531,-2.844482422,-5.958251953,498,-494,327
8960,-2.956298828,-2.847900391,-5.945068359,477,-487,318
8965,-2.958740234,-2.84765625,-5.945068359,495,-476,303
8970,-2.955566406,-2.84375,-5.946777344,486,-487,325
8975,-2.955566406,-2.846923828,-5.946044922,502,-479,320
8980,-2.959228516,-2.84375,-5.947021484,517,-487,308
8985,-2.957763672,-2.847167969,-5.947265625,474,-465,304
8990,-2.959960938,-2.849853516,-5.945556641,477,-490,325
8995,-2.953857422,-2.845458984,-5.947509766,501,-459,315
9000,-2.961914063,-2.844970703,-5.940429688,505,-497,323
9005,-2.959472656,-2.84765625,-5.948242188,498,-520,306
9010,-2.95703125,-2.848388672,-5.950683594,468,-478,344
9015,-2.957275391,-2.844482422,-5.951660156,492,-515,317
9020,-2.955810547,-2.845214844,-5.945800781,471,-505,327
9025,-2.958007813,-2.843261719,-5.942138672,509,-472,326
9030,-2.959716797,-2.845947266,-5.947753906,485,-496,317
9035,-2.958984375,-2.844482422,-5.947753906,488,-470,308
9040,-2.952880859,-2.846923828,-5.950195313,497,-486,328
9045,-2.956054688,-2.847412109,-5.952148438,511,-477,324
9050,-2.959472656,-2.842773438,-5.955078125,503,-473,306
9055,-2.957275391,-2.844482422,-5.947265625,474,-510,315
9060,-2.958007813,-2.84765625,-5.941162109,485,-488,319
9065,-2.957275391,-2.845947266,-5.935302734,483,-489,318
9070,-2.956054688,-2.848388672,-5.947265625,483,-490,334
9076,-2.954345703,-2.844482422,-5.947998047,505,-475,305
9081,-2.95703125,-2.846435547,-5.953369141,495,-472,331
9086,-2.95703125,-2.846435547,-5.942871094,513,-485,349
9091,-2.95703125,-2.844482422,-5.945068359,490,-500,341
9096,-2.958740234,-2.844726563,-5.950439453,489,-480,315
9101,-2.958496094,-2.844970703,-5.955810547,485,-487,316
9106,-2.958251953,-2.847167969,-5.945068359,496,-477,311
9111,-2.95703125,-2.84765625,-5.947021484,488,-487,313
9116,-2.960205078,-2.843505859,-5.953125,489,-487,326
9121,-2.958251953,-2.843017578,-5.948486328,498,-494,308
9126,-2.958984375,-2.842285156,-5.944091797,516,-503,321
9131,-2.956787109,-2.842285156,-5.946533203,477,-490,336
9136,-2.959228516,-2.846679688,-5.953369141,489,-482,285
9141,-2.958740234,-2.845947266,-5.942138672,497,-504,310
9146,-2.955078125,-2.847900391,-5.952148438,515,-490,299
9151,-2.957519531,-2.846923828,-5.94140625,494,-496,314
9156,-2.957519531,-2.847900391,-5.948486328,494,-498,335
9161,-2.957763672,-2.847412109,-5.945800781,490,-473,322
9166,-2.957275391,-2.846435547,-5.944824219,480,-480,324
9171,-2.958251953,-2.844970703,-5.94921875,490,-489,328
9176,-2.957763672,-2.848876953,-5.945800781,483,-470,316
9181,-2.960205078,-2.844238281,-5.945556641,468,-484,312
9186,-2.956298828,-2.845947266,-5.943847656,497,-503,322
9191,-2.961425781,-2.841308594,-5.938232422,509,-493,323
9196,-2.955078125,-2.844238281,-5.952392578,527,-501,311
9201,-2.958496094,-2.845947266,-5.946289063,492,-492,295
9206,-2.955810547,-2.844970703,-5.944091797,499,-493,318
9212,-2.958740234,-2.840576172,-5.947509766,482,-496,302
9217,-2.959228516,-2.845458984,-5.950195313,490,-474,317
9222,-2.959472656,-2.847900391,-5.947021484,474,-497,307
9227,-2.955566406,-2.845947266,-5.943359375,519,-489,306
9232,-2.959228516,-2.844726563,-5.949707031,512,-484,323
9237,-2.957763672,-2.84375,-5.940917969,481,-472,321
9242,-2.959716797,-2.845947266,-5.946777344,482,-502,305
9247,-2.95703125,-2.845703125,-5.952636719,500,-474,316
9252,-2.95703125,-2.846923828,-5.947021484,475,-495,334
9257,-2.957763672,-2.846679688,-5.948486328,475,-484,308
9262,-2.957275391,-2.842285156,-5.946533203,482,-479,324
9267,-2.955810547,-2.844482422,-5.936523438,484,-495,339
9272,-2.960449219,-2.842285156,-5.950439453,494,-489,309
9277,-2.959228516,-2.840087891,-5.94921875,486,-509,325
9282,-2.958740234,-2.842285156,-5.944824219,475,-486,298
9287,-2.952392578,-2.847900391,-5.950195313,477,-478,314
9292,-2.959228516,-2.845703125,-5.946289063,483,-497,309
9297,-2.956298828,-2.841308594,-5.944091797,507,-465,295
9302,-2.958251953,-2.846679688,-5.946289063,499,-478,326
9307,-2.958007813,-2.846191406,-5.947998047,474,-486,309
9312,-2.958740234,-2.846435547,-5.947509766,501,-485,328
9317,-2.958251953,-2.841552734,-5.946777344,470,-500,324
9322,-2.956787109,-2.850097656,-5.942626953,459,-486,329
9327,-2.9609375,-2.846923828,-5.952148438,476,-503,323
9332,-2.95703125,-2.843261719,-5.957275391,471,-514,305
9337,-2.961181641,-2.846923828,-5.942138672,481,-484,320
9342,-2.958007813,-2.843017578,-5.943115234,497,-487,313
9347,-2.959228516,-2.850341797,-5.951660156,487,-495,308
9353,-2.955810547,-2.84375,-5.9453125,491,-473,303
9358,-2.955810547,-2.846435547,-5.947021484,522,-480,295
9363,-2.959960938,-2.846435547,-5.947509766,492,-493,320
9368,-2.955078125,-2.844970703,-5.944580078,489,-500,332
9373,-2.958007813,-2.844970703,-5.939697266,479,-491,299
9378,-2.958984375,-2.844238281,-5.948242188,480,-491,304
9383,-2.958496094,-2.845703125,-5.947998047,465,-495,318
9388,-2.955322266,-2.847900391,-5.94921875,480,-474,295
9393,-2.957275391,-2.843505859,-5.9453125,503,-462,306
9398,-2.955566406,-2.846923828,-5.9453125,510,-450,323
9403,-2.958740234,-2.846679688,-5.948730469,486,-495,325
9408,-2.959228516,-2.84375,-5.947998047,488,-467,341
9413,-2.95703125,-2.845947266,-5.944580078,501,-477,328
9418,-2.953857422,-2.847167969,-5.946777344,479,-471,323
9423,-2.955810547,-2.845703125,-5.950439453,494,-500,309
9428,-2.956542969,-2.848388672,-5.945068359,488,-490,324
9433,-2.957275391,-2.841308594,-5.951171875,505,-468,323
9438,-2.960693359,-2.846679688,-5.950195313,465,-497,293
9443,-2.961914063,-2.844726563,-5.939941406,504,-475,322
9448,-2.958496094,-2.846923828,-5.946289063,500,-477,307
9453,-2.960693359,-2.846923828,-5.951416016,482,-489,338
9458,-2.958007813,-2.844726563,-5.939697266,489,-467,318
9463,-2.958251953,-2.845214844,-5.952148438,489,-463,319
9468,-2.956787109,-2.845214844,-5.946777344,497,-496,319
9473,-2.959472656,-2.846435547,-5.944335938,475,-499,306
9478,-2.959472656,-2.847900391,-5.945556641,474,-505,320
9483,-2.961425781,-2.847900391,-5.94921875,487,-477,308
9489,-2.954833984,-2.845214844,-5.948486328,503,-461,308
9494,-2.959228516,-2.844726563,-5.948730469,490,-490,307
9499,-2.959716797,-2.845214844,-5.948730469,491,-479,328
9504,-2.958740234,-2.848388672,-5.94921875,497,-479,324
9509,-2.959472656,-2.847900391,-5.949951172,530,-486,313
9514,-2.960449219,-2.844482422,-5.952392578,487,-504,311
9519,-2.957763672,-2.848632813,-5.940917969,481,-482,335
9524,-2.956298828,-2.846923828,-5.951416016,500,-504,312
9529,-2.957763672,-2.840332031,-5.947509766,485,-507,314
9534,-2.956787109,-2.846191406,-5.9453125,498,-467,325
9539,-2.957763672,-2.845458984,-5.942626953,467,-482,320
9544,-2.960205078,-2.844970703,-5.946777344,476,-484,314
9549,-2.954833984,-2.844238281,-5.947265625,502,-466,319
9554,-2.956298828,-2.846923828,-5.947998047,501,-486,310
9559,-2.957519531,-2.847412109,-5.947265625,504,-485,314
9564,-2.955810547,-2.844238281,-5.948730469,482,-458,325
9569,-2.959716797,-2.845458984,-5.948486328,467,-489,308
9574,-2.958740234,-2.84375,-5.936523438,492,-489,335
9579,-2.956054688,-2.845703125,-5.948730469,503,-495,280
9584,-2.956298828,-2.844482422,-5.951660156,484,-477,304
9589,-2.956542969,-2.846923828,-5.944335938,507,-496,288
9594,-2.958740234,-2.845703125,-5.9453125,490,-474,324
9599,-2.955322266,-2.845458984,-5.947021484,484,-476,328
9604,-2.958007813,-2.84765625,-5.942626953,497,-485,320
9609,-2.953125,-2.848632813,-5.944091797,499,-474,329
9614,-2.956054688,-2.847167969,-5.949951172,489,-471,312
9619,-2.95703125,-2.849609375,-5.947509766,488,-494,323
9624,-2.953613281,-2.845214844,-5.944824219,494,-495,320
9630,-2.958251953,-2.847900391,-5.952880859,487,-482,311
9635,-2.957519531,-2.842285156,-5.937744141,498,-483,314
9640,-2.960693359,-2.842773438,-5.947998047,501,-465,292
9645,-2.958007813,-2.845703125,-5.946533203,488,-479,314
9650,-2.955078125,-2.842529297,-5.951171875,467,-475,308
9655,-2.957763672,-2.847167969,-5.944335938,485,-484,300
9660,-2.958496094,-2.844970703,-5.941894531,512,-485,321
9665,-2.958007813,-2.846191406,-5.946044922,498,-468,308
9670,-2.958740234,-2.845703125,-5.947998047,473,-473,325
9675,-2.959472656,-2.843261719,-5.940673828,479,-502,307
9680,-2.959228516,-2.847412109,-5.951416016,486,-481,326
9685,-2.956054688,-2.842285156,-5.947509766,484,-509,309
9690,-2.957519531,-2.84375,-5.946044922,464,-482,318
9695,-2.958496094,-2.844970703,-5.951171875,482,-485,340
9700,-2.958496094,-2.845214844,-5.950195313,502,-474,329
9705,-2.958740234,-2.845703125,-5.948486328,507,-478,295
9710,-2.959960938,-2.84765625,-5.949462891,490,-476,326
9715,-2.958496094,-2.843261719,-5.943847656,481,-476,347
9720,-2.95703125,-2.847167969,-5.951171875,495,-479,285
9725,-2.959960938,-2.844482422,-5.946533203,497,-498,343
9730,-2.958984375,-2.844726563,-5.951660156,498,-467,331
9735,-2.954345703,-2.840087891,-5.947753906,501,-473,298
9740,-2.960693359,-2.843994141,-5.944580078,486,-453,332
9745,-2.959716797,-2.842529297,-5.951904297,479,-467,315
9750,-2.959716797,-2.845458984,-5.9453125,492,-487,317
9755,-2.958251953,-2.844482422,-5.948974609,490,-501,326
9760,-2.958007813,-2.845214844,-5.949462891,489,-464,320
9766,-2.958496094,-2.848388672,-5.947265625,503,-471,315
9771,-2.955322266,-2.846679688,-5.94921875,482,-476,321
9776,-2.95703125,-2.846191406,-5.936767578,477,-500,310
9781,-2.957519531,-2.845703125,-5.945800781,504,-488,317
9786,-2.956542969,-2.845458984,-5.946289063,477,-494,310
9791,-2.956054688,-2.842529297,-5.939208984,490,-495,328
9796,-2.955566406,-2.842773438,-5.949707031,506,-500,327
9801,-2.958251953,-2.843017578,-5.942138672,487,-484,324
9806,-2.960205078,-2.84765625,-5.946289063,498,-457,338
9811,-2.95703125,-2.848876953,-5.945068359,486,-476,318
9816,-2.959472656,-2.846435547,-5.950439453,473,-496,347
9821,-2.958496094,-2.848388672,-5.940429688,496,-484,332
9826,-2.955078125,-2.841796875,-5.950683594,504,-499,326
9831,-2.956787109,-2.84375,-5.947509766,512,-489,333
9836,-2.955566406,-2.846923828,-5.9453125,495,-496,302
9841,-2.957275391,-2.845458984,-5.944580078,500,-475,305
9846,-2.958984375,-2.845458984,-5.946777344,486,-489,333
9851,-2.955322266,-2.846679688,-5.942382813,478,-473,338
9856,-2.959960938,-2.844970703,-5.952636719,495,-480,309
9861,-2.958740234,-2.848632813,-5.955078125,494,-498,325
9866,-2.957763672,-2.844970703,-5.948730469,511,-464,324
9871,-2.956787109,-2.844970703,-5.947265625,462,-500,297
9876,-2.958496094,-2.847900391,-5.949462891,513,-472,339
9881,-2.958007813,-2.842773438,-5.952880859,494,-475,314
9886,-2.955566406,-2.845703125,-5.946044922,490,-477,306
9891,-2.956054688,-2.843505859,-5.945556641,493,-509,343
9896,-2.959472656,-2.845703125,-5.944580078,499,-482,320
9901,-2.954101563,-2.846435547,-5.949707031,493,-497,317
9907,-2.958984375,-2.844482422,-5.940429688,488,-480,317
9912,-2.957275391,-2.847412109,-5.943115234,499,-498,310
9917,-2.9609375,-2.84375,-5.945068359,494,-470,301
9922,-2.960449219,-2.84765625,-5.953613281,501,-469,336
9927,-2.957519531,-2.845214844,-5.951904297,502,-499,297
9932,-2.959716797,-2.844238281,-5.94921875,478,-507,323
9937,-2.959472656,-2.850585938,-5.944335938,504,-482,328
9942,-2.960205078,-2.847900391,-5.954589844,491,-498,320
9947,-2.955810547,-2.843261719,-5.948486328,482,-514,317
9952,-2.956054688,-2.84765625,-5.952880859,473,-490,305
9957,-2.956542969,-2.844238281,-5.947265625,495,-484,326
9962,-2.960205078,-2.844726563,-5.950683594,485,-485,317
9967,-2.959716797,-2.844726563,-5.950683594,491,-497,308
9972,-2.957763672,-2.846191406,-5.948974609,488,-488,304
9977,-2.958251953,-2.844726563,-5.943603516,488,-483,310
9982,-2.959228516,-2.847900391,-5.950683594,482,-511,283
9987,-2.958740234,-2.846923828,-5.950439453,500,-469,328
9992,-2.958984375,-2.845458984,-5.949462891,488,-487,316
9997,-2.953613281,-2.844238281,-5.946533203,482,-480,321
10002,-2.958984375,-2.845947266,-5.941650391,497,-488,308
10007,-2.958496094,-2.846679688,-5.943847656,486,-497,325
10012,-2.9609375,-2.846435547,-5.955566406,486,-475,333
10017,-2.952880859,-2.844238281,-5.947998047,503,-494,299
10022,-2.958984375,-2.84765625,-5.943359375,489,-486,296
10027,-2.960449219,-2.845214844,-5.946289063,514,-478,305
10032,-2.958007813,-2.850097656,-5.952636719,479,-488,301
10037,-2.960205078,-2.844970703,-5.948974609,515,-484,324
10043,-2.959960938,-2.843994141,-5.948730469,507,-506,332
10048,-2.957763672,-2.841796875,-5.945556641,493,-469,323
10053,-2.955322266,-2.843994141,-5.946777344,462,-477,310
10058,-2.957275391,-2.843261719,-5.951171875,489,-471,307
10063,-2.954345703,-2.846191406,-5.943847656,486,-491,326
10068,-2.95703125,-2.845947266,-5.950439453,488,-493,305
10073,-2.95703125,-2.846923828,-5.948730469,490,-500,306
10078,-2.956542969,-2.843994141,-5.948974609,518,-488,327
10083,-2.955322266,-2.846923828,-5.947998047,489,-492,332
10088,-2.958007813,-2.840820313,-5.944335938,474,-489,294
10093,-2.957275391,-2.846435547,-5.947753906,483,-468,322
10098,-2.956542969,-2.847900391,-5.945556641,489,-477,326
10103,-2.957519531,-2.845947266,-5.952636719,490,-481,314
10108,-2.958007813,-2.847900391,-5.950927734,481,-483,334
10113,-2.958496094,-2.844238281,-5.949951172,493,-493,331
10118,-2.958984375,-2.843505859,-5.94140625,483,-470,339
10123,-2.961425781,-2.848876953,-5.945556641,492,-491,309
10128,-2.954833984,-2.844482422,-5.948730469,506,-485,321
10133,-2.958496094,-2.847412109,-5.943359375,509,-498,311
10138,-2.956542969,-2.846923828,-5.944091797,482,-470,281
10143,-2.955810547,-2.845214844,-5.948242188,486,-505,306
10148,-2.954833984,-2.846435547,-5.941894531,490,-483,315
10153,-2.959228516,-2.846191406,-5.942138672,506,-480,327
10158,-2.958251953,-2.845458984,-5.943603516,468,-467,333
10163,-2.956298828,-2.843017578,-5.951904297,483,-475,318
10168,-2.957519531,-2.844726563,-5.951904297,486,-500,284
10173,-2.958740234,-2.844726563,-5.945068359,492,-498,307
10179,-2.955810547,-2.844726563,-5.946777344,492,-476,312
10184,-2.959472656,-2.847900391,-5.949462891,482,-464,335
10189,-2.956542969,-2.846435547,-5.948486328,496,-453,323
10194,-2.960449219,-2.844726563,-5.944091797,488,-479,313
10199,-2.956542969,-2.844726563,-5.950439453,482,-473,340
10204,-2.955078125,-2.845458984,-5.953857422,478,-497,334
10209,-2.95703125,-2.844482422,-5.940429688,493,-476,325
10214,-2.954589844,-2.843261719,-5.943603516,485,-496,344
10219,-2.956298828,-2.846679688,-5.944091797,475,-483,292
10224,-2.960449219,-2.848876953,-5.954345703,487,-492,328
10229,-2.961669922,-2.845214844,-5.947509766,503,-513,321
10234,-2.957519531,-2.844482422,-5.954101563,497,-471,306
10239,-2.956542969,-2.848144531,-5.9453125,501,-513,308
10244,-2.956054688,-2.843261719,-5.942626953,503,-504,323
10249,-2.956542969,-2.847167969,-5.946044922,500,-467,334
10254,-2.958984375,-2.844970703,-5.94140625,484,-480,304
10259,-2.95703125,-2.845947266,-5.954345703,478,-477,312
10264,-2.958007813,-2.846435547,-5.939941406,492,-484,303
10269,-2.954101563,-2.845458984,-5.945068359,492,-461,314
10274,-2.962158203,-2.847412109,-5.946289063,497,-503,322
10279,-2.959960938,-2.845458984,-5.947509766,474,-470,330
10284,-2.957275391,-2.842773438,-5.944091797,490,-475,284
10289,-2.958251953,-2.846923828,-5.943603516,497,-469,343
10294,-2.955078125,-2.845947266,-5.947998047,481,-483,335
10299,-2.958984375,-2.843994141,-5.950439453,503,-480,304
10304,-2.958251953,-2.844970703,-5.951660156,495,-500,313
10309,-2.961181641,-2.848388672,-5.950683594,501,-480,302
10314,-2.95703125,-2.846923828,-5.949462891,497,-502,336
10320,-2.955322266,-2.842529297,-5.940429688,493,-480,317
10325,-2.955566406,-2.844238281,-5.946044922,501,-502,314
10330,-2.958740234,-2.844482422,-5.951416016,508,-486,324
10335,-2.954101563,-2.842773438,-5.941894531,477,-471,326
10340,-2.956298828,-2.84765625,-5.943115234,480,-501,306
10345,-2.959472656,-2.845703125,-5.953613281,497,-483,309
10350,-2.956298828,-2.848632813,-5.947998047,494,-487,342
10355,-2.956542969,-2.844238281,-5.953125,505,-504,315
10360,-2.958251953,-2.844970703,-5.951660156,490,-485,305
10365,-2.957519531,-2.842773438,-5.946777344,493,-488,336
10370,-2.958740234,-2.847412109,-5.945556641,475,-502,305
10375,-2.957519531,-2.844970703,-5.946777344,486,-484,296
10380,-2.956787109,-2.848632813,-5.949462891,487,-491,315
10385,-2.958496094,-2.84375,-5.938964844,509,-458,324
10390,-2.956787109,-2.844238281,-5.951416016,512,-458,335
10395,-2.958496094,-2.846923828,-5.950195313,521,-469,323
10400,-2.956054688,-2.84765625,-5.950927734,499,-496,320
10405,-2.95703125,-2.843994141,-5.941894531,488,-472,328
10410,-2.956054688,-2.842773438,-5.945068359,501,-465,310
10415,-2.957519531,-2.850097656,-5.946044922,482,-482,335
10420,-2.956787109,-2.844726563,-5.940185547,472,-495,319
10425,-2.957519531,-2.840576172,-5.945556641,489,-505,341
10430,-2.954589844,-2.84375,-5.946533203,481,-487,331
10435,-2.958251953,-2.843017578,-5.950683594,491,-485,294
10440,-2.957763672,-2.84765625,-5.952636719,519,-465,299
10445,-2.956298828,-2.84765625,-5.951171875,504,-483,319
10450,-2.958740234,-2.842773438,-5.942138672,479,-469,300
10456,-2.957275391,-2.846679688,-5.947998047,503,-493,312
10461,-2.954101563,-2.846923828,-5.94921875,497,-506,332
10466,-2.956787109,-2.844482422,-5.94921875,491,-477,342
10471,-2.957763672,-2.844970703,-5.958496094,494,-479,308
10476,-2.959228516,-2.843994141,-5.943847656,457,-485,337
10481,-2.956054688,-2.843261719,-5.941650391,480,-493,328
10486,-2.9609375,-2.84375,-5.944091797,483,-480,296
10491,-2.954345703,-2.844726563,-5.947998047,494,-471,304
10496,-2.957763672,-2.845214844,-5.947753906,493,-458,329
10501,-2.955810547,-2.847167969,-5.949462891,514,-462,314
10506,-2.956054688,-2.846191406,-5.945068359,497,-500,306
10511,-2.955810547,-2.84375,-5.945556641,485,-493,330
10516,-2.958251953,-2.845214844,-5.944580078,486,-481,325
10521,-2.961181641,-2.845458984,-5.946777344,472,-483,329
10526,-2.954101563,-2.845458984,-5.948486328,484,-499,311
10531,-2.955566406,-2.842773438,-5.952148438,478,-499,312
10536,-2.960693359,-2.843994141,-5.951904297,483,-486,313
10541,-2.956298828,-2.844970703,-5.953857422,499,-496,328
10546,-2.958740234,-2.846435547,-5.947021484,493,-488,319
10551,-2.958740234,-2.849853516,-5.950927734,506,-478,316
10556,-2.955810547,-2.845947266,-5.949951172,497,-474,334
10561,-2.955810547,-2.848876953,-5.948730469,487,-485,323
10566,-2.959960938,-2.843017578,-5.943359375,488,-499,314
10571,-2.961181641,-2.847412109,-5.950927734,497,-501,333
10576,-2.957519531,-2.846191406,-5.943603516,483,-518,322
10581,-2.956298828,-2.848388672,-5.953369141,488,-492,321
10586,-2.959472656,-2.845214844,-5.94140625,504,-486,303
10591,-2.960205078,-2.848388672,-5.954101563,493,-504,324
10597,-2.955322266,-2.846923828,-5.948242188,489,-476,312
10602,-2.956298828,-2.846923828,-5.948486328,495,-487,329
10607,-2.958007813,-2.846679688,-5.953125,505,-475,304
10612,-2.956542969,-2.843017578,-5.951904297,506,-501,324
10617,-2.956298828,-2.845458984,-5.946044922,503,-447,333
10622,-2.95703125,-2.845458984,-5.9453125,493,-508,312
10627,-2.957763672,-2.846435547,-5.944580078,489,-479,323
10632,-2.959716797,-2.848388672,-5.942626953,484,-485,315
10637,-2.956298828,-2.843505859,-5.940673828,487,-491,311
10642,-2.958007813,-2.844238281,-5.952148438,494,-487,308
10647,-2.95703125,-2.848632813,-5.946777344,503,-479,299
10652,-2.959228516,-2.845947266,-5.947998047,495,-475,308
10657,-2.958740234,-2.845214844,-5.944580078,498,-480,290
10662,-2.955322266,-2.845703125,-5.948730469,493,-454,313
10667,-2.961914063,-2.843505859,-5.940673828,487,-490,285
10672,-2.961181641,-2.849121094,-5.947021484,490,-493,327
