Time,Acc_X,Acc_Y,Acc_Z,Gyro_X,Gyro_Y,Gyro_Z
5,-3.930664063,-2.813476563,-4.918701172,477,-517,339
10,-3.927734375,-2.807373047,-4.917236328,482,-488,357
15,-3.937255859,-2.804443359,-4.917480469,465,-494,331
20,-3.936279297,-2.808837891,-4.915771484,489,-499,346
26,-3.932128906,-2.810058594,-4.923095703,482,-501,346
31,-3.935546875,-2.806152344,-4.915283203,484,-504,297
36,-3.934326172,-2.807861328,-4.920654297,467,-484,328
41,-3.931884766,-2.806396484,-4.921142578,489,-497,328
46,-3.935791016,-2.807861328,-4.915039063,476,-483,348
51,-3.934326172,-2.810302734,-4.922363281,476,-461,320
56,-3.930175781,-2.809570313,-4.920898438,476,-500,352
61,-3.934326172,-2.810546875,-4.918945313,472,-505,338
66,-3.930908203,-2.80859375,-4.916259766,462,-506,341
71,-3.928466797,-2.809570313,-4.920166016,478,-513,333
76,-3.931640625,-2.808837891,-4.914306641,487,-501,320
81,-3.935791016,-2.80859375,-4.909667969,465,-493,317
86,-3.930419922,-2.806884766,-4.915039063,488,-491,327
91,-3.930908203,-2.80859375,-4.919677734,474,-502,344
96,-3.931152344,-2.808349609,-4.907470703,464,-464,337
101,-3.934326172,-2.810058594,-4.923095703,470,-480,344
106,-3.933349609,-2.810791016,-4.917480469,478,-473,348
111,-3.9296875,-2.803466797,-4.917724609,489,-474,355
116,-3.932128906,-2.811035156,-4.910644531,445,-481,346
121,-3.931884766,-2.8046875,-4.920654297,475,-491,332
126,-3.933105469,-2.803955078,-4.915039063,490,-501,312
131,-3.933105469,-2.805175781,-4.922851563,480,-508,343
136,-3.936523438,-2.809814453,-4.914550781,469,-476,311
141,-3.926757813,-2.807861328,-4.920166016,478,-491,332
146,-3.934082031,-2.807861328,-4.919189453,479,-472,355
151,-3.934082031,-2.810302734,-4.914550781,483,-466,335
156,-3.929199219,-2.80859375,-4.919921875,500,-506,313
162,-3.937988281,-2.813476563,-4.920410156,457,-496,341
167,-3.934570313,-2.806884766,-4.91796875,449,-485,357
172,-3.930908203,-2.811035156,-4.919189453,481,-499,351
177,-3.931884766,-2.809326172,-4.920898438,481,-503,328
182,-3.935058594,-2.806396484,-4.916503906,477,-489,348
187,-3.930664063,-2.804199219,-4.91796875,483,-497,339
192,-3.936767578,-2.810302734,-4.917236328,476,-518,353
197,-3.934326172,-2.811523438,-4.91015625,480,-490,343
202,-3.925048828,-2.806396484,-4.9140625,468,-479,326
207,-3.9375,-2.811767578,-4.915039063,501,-469,342
212,-3.931884766,-2.806640625,-4.917480469,476,-473,347
217,-3.928955078,-2.809082031,-4.915771484,501,-491,327
222,-3.936767578,-2.810546875,-4.926025391,491,-487,351
227,-3.93359375,-2.808105469,-4.911865234,469,-476,326
232,-3.934570313,-2.806640625,-4.919921875,480,-486,345
237,-3.935791016,-2.809326172,-4.914794922,473,-518,329
242,-3.928955078,-2.808837891,-4.912109375,502,-523,328
247,-3.933349609,-2.805664063,-4.911621094,484,-488,330
252,-3.934814453,-2.809814453,-4.913085938,472,-485,340
257,-3.9296875,-2.809326172,-4.924316406,496,-483,350
262,-3.932373047,-2.807128906,-4.908691406,492,-501,338
267,-3.932617188,-2.809814453,-4.912841797,474,-485,357
272,-3.930908203,-2.812011719,-4.921875,486,-485,374
277,-3.935058594,-2.809082031,-4.916259766,473,-494,353
282,-3.937011719,-2.811279297,-4.9140625,470,-492,335
287,-3.932861328,-2.807617188,-4.918457031,461,-488,350
292,-3.932373047,-2.809814453,-4.921142578,477,-509,345
298,-3.938232422,-2.808349609,-4.921630859,463,-511,333
303,-3.927734375,-2.807373047,-4.915283203,482,-509,330
308,-3.931152344,-2.8125,-4.922119141,491,-496,335
313,-3.932861328,-2.807617188,-4.9140625,474,-479,333
318,-3.931152344,-2.806152344,-4.919433594,481,-488,326
323,-3.931884766,-2.811767578,-4.916748047,488,-503,345
328,-3.935302734,-2.808349609,-4.917236328,471,-498,343
333,-3.933837891,-2.808837891,-4.913085938,480,-499,329
338,-3.931884766,-2.811523438,-4.918701172,480,-496,328
343,-3.935302734,-2.810791016,-4.9140625,507,-507,339
348,-3.933105469,-2.806884766,-4.910888672,485,-496,311
353,-3.934570313,-2.809082031,-4.920654297,480,-519,343
358,-3.935058594,-2.812988281,-4.919921875,501,-503,348
363,-3.930419922,-2.810058594,-4.923339844,482,-485,354
368,-3.933349609,-2.810546875,-4.914306641,484,-493,347
373,-3.932373047,-2.811035156,-4.913330078,463,-474,333
378,-3.931396484,-2.804931641,-4.915283203,470,-470,342
383,-3.932373047,-2.802978516,-4.906494141,480,-500,354
388,-3.932617188,-2.80859375,-4.911621094,485,-486,324
393,-3.935302734,-2.80859375,-4.914306641,498,-459,343
398,-3.938232422,-2.807861328,-4.923828125,461,-462,328
403,-3.933105469,-2.808105469,-4.915283203,479,-499,339
408,-3.933837891,-2.810302734,-4.918945313,473,-486,314
413,-3.932617188,-2.810058594,-4.925537109,475,-468,330
418,-3.931884766,-2.809570313,-4.917236328,491,-486,333
423,-3.931152344,-2.809082031,-4.919677734,481,-503,327
428,-3.932128906,-2.811523438,-4.91796875,475,-490,342
434,-3.930664063,-2.808349609,-4.923828125,476,-476,345
439,-3.931640625,-2.808349609,-4.922363281,486,-488,338
444,-3.928955078,-2.813232422,-4.917236328,487,-487,345
449,-3.932373047,-2.808105469,-4.913085938,466,-485,332
454,-3.934570313,-2.806884766,-4.911376953,470,-501,332
459,-3.935791016,-2.811035156,-4.912841797,469,-491,344
464,-3.936279297,-2.809814453,-4.917724609,482,-503,347
469,-3.937255859,-2.810302734,-4.908935547,487,-492,362
474,-3.929443359,-2.811523438,-4.917480469,481,-497,334
479,-3.934326172,-2.810058594,-4.911376953,459,-485,333
484,-3.931152344,-2.806884766,-4.916992188,472,-491,335
489,-3.931884766,-2.809814453,-4.916992188,491,-504,342
494,-3.932617188,-2.807861328,-4.913574219,481,-501,336
499,-3.933837891,-2.808105469,-4.916503906,462,-475,339
504,-3.930419922,-2.812255859,-4.915527344,472,-487,338
509,-3.935302734,-2.809326172,-4.921142578,477,-506,332
514,-3.933105469,-2.807373047,-4.919677734,477,-502,328
519,-3.928222656,-2.806152344,-4.909667969,482,-489,350
524,-3.935302734,-2.809082031,-4.923095703,483,-491,333
529,-3.9375,-2.808837891,-4.916015625,494,-484,309
534,-3.932617188,-2.806640625,-4.91796875,461,-481,319
539,-3.931640625,-2.811523438,-4.915283203,464,-500,319
544,-3.931396484,-2.806640625,-4.916015625,473,-499,352
549,-3.928710938,-2.807373047,-4.915771484,473,-493,339
554,-3.933837891,-2.810302734,-4.91796875,471,-502,313
559,-3.931152344,-2.808349609,-4.920166016,475,-495,344
564,-3.937988281,-2.809814453,-4.912109375,470,-481,343
570,-3.931884766,-2.810058594,-4.915283203,470,-491,342
575,-3.9296875,-2.808349609,-4.914550781,479,-466,333
580,-3.934570313,-2.810058594,-4.918945313,454,-498,314
585,-3.931152344,-2.809814453,-4.917480469,464,-482,340
590,-3.929931641,-2.810546875,-4.917724609,491,-477,359
595,-3.936279297,-2.812744141,-4.911621094,486,-512,353
600,-3.933105469,-2.806884766,-4.917480469,467,-512,341
605,-3.932373047,-2.809570313,-4.912841797,501,-501,340
610,-3.935546875,-2.804931641,-4.913330078,485,-516,333
615,-3.931152344,-2.807861328,-4.916015625,477,-489,348
620,-3.931396484,-2.806884766,-4.913818359,480,-488,319
625,-3.935546875,-2.808837891,-4.912353516,482,-471,343
630,-3.934814453,-2.811279297,-4.915039063,465,-468,331
635,-3.929443359,-2.806152344,-4.918212891,470,-488,344
640,-3.934814453,-2.812011719,-4.906005859,477,-484,336
645,-3.937744141,-2.807617188,-4.918457031,471,-507,344
650,-3.931396484,-2.808105469,-4.918457031,476,-501,325
655,-3.931640625,-2.810791016,-4.916015625,459,-507,331
660,-3.935058594,-2.808105469,-4.912841797,483,-511,332
665,-3.931884766,-2.807128906,-4.918945313,464,-474,363
670,-3.933349609,-2.80859375,-4.924316406,484,-512,344
675,-3.933349609,-2.806884766,-4.919677734,492,-493,335
680,-3.931152344,-2.811767578,-4.911865234,478,-483,335
685,-3.936767578,-2.811279297,-4.917480469,466,-484,339
690,-3.931396484,-2.810058594,-4.913574219,507,-488,356
695,-3.933105469,-2.807373047,-4.915039063,495,-479,375
700,-3.937255859,-2.809326172,-4.920654297,480,-499,331
706,-3.934570313,-2.806640625,-4.920654297,483,-483,336
711,-3.932617188,-2.808105469,-4.909912109,480,-507,355
716,-3.937255859,-2.809082031,-4.9140625,478,-509,341
721,-3.929931641,-2.808105469,-4.922363281,493,-479,343
726,-3.935302734,-2.811523438,-4.923095703,497,-496,350
731,-3.939697266,-2.809814453,-4.912109375,464,-484,331
736,-3.932128906,-2.807617188,-4.912109375,490,-487,365
741,-3.929443359,-2.809082031,-4.919677734,486,-468,341
746,-3.9296875,-2.805419922,-4.918701172,481,-499,349
751,-3.931152344,-2.810546875,-4.918212891,466,-475,358
756,-3.936035156,-2.810302734,-4.914550781,492,-501,351
761,-3.934570313,-2.809570313,-4.916748047,488,-509,339
766,-3.934326172,-2.806396484,-4.916748047,483,-500,345
771,-3.932861328,-2.807861328,-4.921630859,480,-511,316
776,-3.931640625,-2.807861328,-4.922119141,474,-480,322
781,-3.932128906,-2.805664063,-4.91796875,473,-498,333
786,-3.930908203,-2.811767578,-4.917724609,475,-486,322
791,-3.930664063,-2.814697266,-4.913574219,472,-471,343
796,-3.933837891,-2.805419922,-4.918701172,461,-485,327
801,-3.934570313,-2.804931641,-4.909423828,475,-486,347
806,-3.931396484,-2.810546875,-4.915039063,486,-494,325
811,-3.934082031,-2.810058594,-4.922119141,484,-477,329
816,-3.930908203,-2.807373047,-4.924072266,458,-495,316
821,-3.931640625,-2.807373047,-4.917724609,476,-488,348
826,-3.931884766,-2.807861328,-4.909912109,478,-483,341
831,-3.931640625,-2.806884766,-4.913330078,485,-503,341
836,-3.935546875,-2.80859375,-4.922119141,479,-496,340
842,-3.934082031,-2.811523438,-4.915771484,466,-496,350
847,-3.931396484,-2.806884766,-4.912353516,491,-471,358
852,-3.933105469,-2.807128906,-4.917236328,472,-485,337
857,-3.926025391,-2.807861328,-4.916015625,492,-488,335
862,-3.934814453,-2.805664063,-4.922119141,476,-504,336
867,-3.935058594,-2.810058594,-4.914550781,466,-486,340
872,-3.930664063,-2.810546875,-4.912353516,464,-489,331
877,-3.9296875,-2.810791016,-4.916503906,474,-494,340
882,-3.931884766,-2.809570313,-4.923095703,464,-497,333
887,-3.933349609,-2.810058594,-4.918701172,467,-487,362
892,-3.930908203,-2.810546875,-4.91796875,474,-481,349
897,-3.934570313,-2.807617188,-4.919921875,494,-494,337
902,-3.930175781,-2.810058594,-4.916992188,499,-491,337
907,-3.929443359,-2.811035156,-4.911865234,506,-494,322
912,-3.930908203,-2.808837891,-4.920898438,476,-475,330
917,-3.933837891,-2.80859375,-4.916503906,472,-487,356
922,-3.927490234,-2.809326172,-4.916503906,491,-476,362
927,-3.933349609,-2.805664063,-4.920898438,470,-461,317
932,-3.935791016,-2.805419922,-4.917480469,473,-488,347
937,-3.931884766,-2.814208984,-4.918701172,468,-487,328
942,-3.933349609,-2.810058594,-4.917236328,482,-497,353
947,-3.93359375,-2.812011719,-4.916992188,474,-499,323
952,-3.92578125,-2.810302734,-4.919677734,473,-509,346
957,-3.936523438,-2.812744141,-4.922119141,487,-496,329
962,-3.936523438,-2.809326172,-4.912841797,490,-492,326
967,-3.931640625,-2.809326172,-4.915283203,491,-481,333
972,-3.936279297,-2.810058594,-4.921142578,491,-510,334
978,-3.935058594,-2.807373047,-4.912353516,477,-469,336
983,-3.931152344,-2.807617188,-4.91796875,478,-485,325
988,-3.935791016,-2.811767578,-4.914306641,478,-471,334
993,-3.9296875,-2.806884766,-4.918701172,495,-497,326
998,-3.938720703,-2.805175781,-4.913574219,464,-479,329
1003,-3.932373047,-2.808349609,-4.922607422,467,-471,326
1008,-3.930175781,-2.80859375,-4.915771484,478,-484,318
1013,-3.931152344,-2.807617188,-4.917724609,459,-477,335
1018,-3.934082031,-2.812744141,-4.916503906,471,-476,330
1023,-3.930908203,-2.810058594,-4.926757813,483,-492,323
1028,-3.93359375,-2.806396484,-4.919433594,478,-496,356
1033,-3.937255859,-2.805664063,-4.916992188,459,-492,351
1038,-3.927246094,-2.809326172,-4.913818359,471,-477,338
1043,-3.933105469,-2.810058594,-4.919677734,478,-489,341
1048,-3.932128906,-2.804931641,-4.916015625,472,-488,344
1053,-3.930175781,-2.808837891,-4.916015625,471,-496,354
1058,-3.937744141,-2.813232422,-4.917480469,486,-468,355
1063,-3.938720703,-2.806884766,-4.923339844,492,-486,355
1068,-3.932128906,-2.808837891,-4.914550781,480,-475,329
1073,-3.938232422,-2.808105469,-4.918701172,477,-495,337
1078,-3.933105469,-2.804931641,-4.918701172,469,-494,330
1083,-3.932373047,-2.809082031,-4.920166016,486,-496,348
1088,-3.931152344,-2.811523438,-4.910400391,501,-503,342
1093,-3.931884766,-2.810791016,-4.920166016,489,-483,357
1098,-3.933105469,-2.807617188,-4.918945313,476,-501,353
1103,-3.930664063,-2.807617188,-4.914794922,481,-485,337
1108,-3.930175781,-2.812744141,-4.917724609,482,-494,345
1114,-3.933105469,-2.803466797,-4.911865234,486,-486,335
1119,-3.931640625,-2.810058594,-4.9140625,487,-474,303
1124,-3.93359375,-2.808349609,-4.917480469,466,-477,341
1129,-3.935546875,-2.804199219,-4.917480469,478,-494,372
1134,-3.931884766,-2.807128906,-4.915039063,453,-502,341
1139,-3.936279297,-2.810546875,-4.914794922,488,-516,362
1144,-3.933837891,-2.808349609,-4.918212891,471,-512,325
1149,-3.934570313,-2.809082031,-4.908935547,479,-511,330
1154,-3.932128906,-2.813232422,-4.916259766,486,-486,342
1159,-3.928466797,-2.807861328,-4.913574219,484,-513,332
1164,-3.93359375,-2.808837891,-4.917724609,501,-494,348
1169,-3.932617188,-2.810791016,-4.919677734,487,-484,322
1174,-3.934326172,-2.808349609,-4.918212891,486,-490,340
1179,-3.937011719,-2.811035156,-4.920166016,454,-491,344
1184,-3.932861328,-2.809814453,-4.921386719,472,-474,354
1189,-3.932128906,-2.808349609,-4.918457031,478,-503,341
1194,-3.936523438,-2.805175781,-4.911376953,461,-471,344
1199,-3.932128906,-2.809082031,-4.911376953,476,-495,331
1204,-3.928466797,-2.809570313,-4.908447266,458,-511,335
1209,-3.93359375,-2.811279297,-4.908203125,465,-486,309
1214,-3.930419922,-2.805664063,-4.910644531,477,-486,326
1219,-3.930175781,-2.807373047,-4.923339844,481,-522,343
1224,-3.934326172,-2.807861328,-4.917236328,477,-490,344
1229,-3.936035156,-2.807128906,-4.912109375,464,-474,353
1234,-3.935058594,-2.80859375,-4.916503906,449,-470,328
1239,-3.931396484,-2.811279297,-4.923095703,483,-513,319
1244,-3.934082031,-2.805419922,-4.920166016,469,-484,338
1250,-3.933349609,-2.807617188,-4.924072266,474,-482,319
1255,-3.930664063,-2.809814453,-4.914550781,477,-489,325
1260,-3.933349609,-2.809814453,-4.920410156,461,-490,332
1265,-3.932128906,-2.809082031,-4.912353516,479,-502,341
1270,-3.931640625,-2.806640625,-4.918701172,485,-478,358
1275,-3.934082031,-2.812255859,-4.908935547,484,-481,357
1280,-3.932373047,-2.806396484,-4.921875,476,-494,358
1285,-3.930664063,-2.808837891,-4.916992188,471,-469,344
1290,-3.934082031,-2.811279297,-4.921142578,478,-513,323
1295,-3.936035156,-2.806396484,-4.919189453,485,-501,324
1300,-3.934082031,-2.810058594,-4.918701172,469,-480,307
1305,-3.935302734,-2.811767578,-4.911865234,496,-519,317
1310,-3.931640625,-2.808837891,-4.913085938,471,-527,346
1315,-3.928955078,-2.810058594,-4.918212891,511,-515,354
1320,-3.930908203,-2.814453125,-4.915039063,464,-516,366
1325,-3.934082031,-2.807128906,-4.91015625,478,-497,371
1330,-3.935058594,-2.80859375,-4.916748047,485,-496,364
1335,-3.934570313,-2.811523438,-4.919433594,468,-469,339
1340,-3.928955078,-2.807861328,-4.918212891,493,-499,307
1345,-3.9375,-2.807861328,-4.913330078,485,-481,313
1350,-3.930908203,-2.809814453,-4.920166016,482,-490,304
1355,-3.924804688,-2.810546875,-4.917480469,490,-490,337
1360,-3.932617188,-2.806396484,-4.917724609,490,-493,331
1365,-3.93359375,-2.807373047,-4.913818359,455,-497,355
1370,-3.931152344,-2.808349609,-4.919921875,468,-488,343
1375,-3.941162109,-2.807617188,-4.912597656,476,-494,329
1380,-3.931640625,-2.806640625,-4.919921875,464,-487,316
1386,-3.931884766,-2.806152344,-4.916748047,492,-479,321
1391,-3.932861328,-2.810791016,-4.922607422,475,-502,333
1396,-3.930664063,-2.806640625,-4.916259766,496,-475,332
1401,-3.931640625,-2.80859375,-4.919189453,484,-488,355
1406,-3.936767578,-2.810546875,-4.917480469,479,-497,358
1411,-3.932617188,-2.806152344,-4.915527344,484,-517,347
1416,-3.932373047,-2.808105469,-4.911865234,482,-496,359
1421,-3.933837891,-2.811523438,-4.915527344,478,-488,331
1426,-3.940185547,-2.803955078,-4.915283203,463,-483,337
1431,-3.932128906,-2.808837891,-4.91015625,465,-492,340
1436,-3.937744141,-2.811035156,-4.911621094,477,-503,303
1441,-3.930908203,-2.80859375,-4.916259766,480,-479,316
1446,-3.930419922,-2.807373047,-4.915039063,478,-471,331
1451,-3.933349609,-2.809326172,-4.919921875,511,-483,338
1456,-3.929199219,-2.811523438,-4.919921875,466,-499,346
1461,-3.933349609,-2.806884766,-4.915527344,461,-479,327
1466,-3.932128906,-2.807617188,-4.916748047,476,-514,339
1471,-3.933105469,-2.812255859,-4.919433594,496,-476,335
1476,-3.933837891,-2.808105469,-4.922363281,478,-493,348
1481,-3.937011719,-2.809326172,-4.923339844,483,-493,343
1486,-3.928955078,-2.804931641,-4.920654297,491,-493,353
1491,-3.932373047,-2.811279297,-4.919189453,476,-487,332
1496,-3.932128906,-2.811279297,-4.911132813,466,-481,308
1501,-3.928222656,-2.810546875,-4.919677734,487,-503,315
1506,-3.930175781,-2.811279297,-4.914306641,474,-515,325
1511,-3.932617188,-2.802734375,-4.911376953,465,-508,326
1516,-3.925048828,-2.804443359,-4.915527344,484,-469,354
1522,-3.929931641,-2.808105469,-4.920166016,478,-484,329
1527,-3.934814453,-2.808349609,-4.918945313,469,-474,341
1532,-3.932373047,-2.8125,-4.919189453,482,-469,318
1537,-3.936523438,-2.812255859,-4.918457031,478,-467,355
1542,-3.934814453,-2.810302734,-4.915771484,500,-467,357
1547,-3.933837891,-2.807617188,-4.915039063,483,-486,333
1552,-3.931640625,-2.814208984,-4.916503906,479,-480,329
1557,-3.93359375,-2.809326172,-4.913085938,464,-478,331
1562,-3.932617188,-2.803710938,-4.917480469,474,-508,325
1567,-3.935302734,-2.808105469,-4.920410156,488,-512,324
1572,-3.931884766,-2.812255859,-4.914794922,471,-525,326
1577,-3.935058594,-2.809570313,-4.919677734,478,-505,319
1582,-3.931640625,-2.809814453,-4.915039063,488,-474,369
1587,-3.9296875,-2.810058594,-4.918212891,513,-500,348
1592,-3.935058594,-2.805908203,-4.920654297,481,-477,323
1597,-3.929931641,-2.807373047,-4.918212891,476,-483,355
1602,-3.930419922,-2.808349609,-4.91796875,493,-489,349
1607,-3.932861328,-2.805175781,-4.927001953,493,-499,334
1612,-3.934570313,-2.80859375,-4.922607422,472,-486,353
1617,-3.929443359,-2.810302734,-4.91796875,496,-497,353
1622,-3.932373047,-2.811035156,-4.916503906,474,-501,344
1627,-3.9296875,-2.8125,-4.920166016,490,-502,336
1632,-3.933349609,-2.807617188,-4.921386719,464,-500,324
1637,-3.931640625,-2.811767578,-4.918945313,472,-468,339
1642,-3.934814453,-2.812988281,-4.915039063,478,-491,348
1647,-3.932617188,-2.80859375,-4.911132813,476,-463,337
1652,-3.932373047,-2.807861328,-4.920654297,456,-477,335
1658,-3.93359375,-2.808105469,-4.921875,487,-498,332
1663,-3.936523438,-2.807617188,-4.910888672,480,-487,343
1668,-3.928710938,-2.811035156,-4.908935547,497,-500,333
1673,-3.931884766,-2.809326172,-4.918701172,490,-482,342
1678,-3.935791016,-2.80859375,-4.916015625,473,-497,337
1683,-3.932128906,-2.807617188,-4.912109375,468,-482,352
1688,-3.928222656,-2.809814453,-4.916259766,484,-525,353
1693,-3.933105469,-2.804443359,-4.915283203,481,-497,355
1698,-3.934814453,-2.809326172,-4.919677734,469,-495,355
1703,-3.929443359,-2.807128906,-4.917724609,479,-483,333
1708,-3.933105469,-2.806152344,-4.922119141,490,-481,327
1713,-3.93359375,-2.810058594,-4.911132813,473,-473,349
1718,-3.932373047,-2.808105469,-4.916992188,491,-492,352
1723,-3.932128906,-2.80859375,-4.919677734,482,-500,347
1728,-3.934570313,-2.807861328,-4.912597656,466,-495,332
1733,-3.931640625,-2.810791016,-4.916259766,455,-498,363
1738,-3.935058594,-2.810791016,-4.920654297,473,-488,348
1743,-3.934082031,-2.808105469,-4.912841797,484,-505,337
1748,-3.937011719,-2.808105469,-4.91796875,469,-501,340
1753,-3.933837891,-2.810302734,-4.916748047,490,-505,325
1758,-3.929931641,-2.808105469,-4.923583984,474,-474,345
1763,-3.933105469,-2.807861328,-4.915771484,492,-476,334
1768,-3.932128906,-2.809570313,-4.921630859,472,-488,353
1773,-3.928710938,-2.810546875,-4.920654297,484,-489,340
1778,-3.931884766,-2.803955078,-4.917236328,502,-499,347
1783,-3.933349609,-2.808105469,-4.916748047,497,-502,338
1788,-3.932373047,-2.809570313,-4.915771484,476,-493,341
1794,-3.935058594,-2.808349609,-4.916259766,474,-492,342
1799,-3.931884766,-2.8046875,-4.918945313,486,-502,341
1804,-3.928955078,-2.810302734,-4.916503906,484,-481,364
1809,-3.932617188,-2.811035156,-4.922851563,470,-504,339
1814,-3.936523438,-2.804931641,-4.916503906,477,-475,329
1819,-3.931640625,-2.812255859,-4.916748047,476,-480,347
1824,-3.930908203,-2.811035156,-4.919677734,500,-463,348
1829,-3.937988281,-2.806396484,-4.916748047,469,-486,333
1834,-3.927490234,-2.809814453,-4.914550781,491,-471,322
1839,-3.935791016,-2.811279297,-4.918212891,495,-491,326
1844,-3.934326172,-2.807128906,-4.9140625,468,-510,340
1849,-3.931640625,-2.811767578,-4.914550781,479,-503,335
1854,-3.928222656,-2.812744141,-4.915283203,483,-506,335
1859,-3.931152344,-2.807861328,-4.915771484,479,-483,316
1864,-3.930419922,-2.80859375,-4.920654297,478,-510,355
1869,-3.934082031,-2.8125,-4.916992188,481,-487,345
1874,-3.933105469,-2.807128906,-4.910400391,489,-461,333
1879,-3.930175781,-2.806640625,-4.91015625,483,-479,344
1884,-3.933837891,-2.810302734,-4.918457031,480,-488,328
1889,-3.932373047,-2.809082031,-4.916503906,466,-490,323
1894,-3.934082031,-2.807128906,-4.910888672,477,-509,330
1899,-3.939208984,-2.807128906,-4.913085938,469,-501,325
1904,-3.933837891,-2.806640625,-4.915039063,484,-486,322
1909,-3.931396484,-2.806152344,-4.920654297,481,-496,351
1914,-3.935546875,-2.807373047,-4.918457031,483,-491,332
1919,-3.926513672,-2.808349609,-4.908203125,489,-513,329
1924,-3.928466797,-2.806396484,-4.919189453,496,-489,328
1930,-3.929443359,-2.807373047,-4.915283203,466,-504,338
1935,-3.931396484,-2.809814453,-4.916748047,498,-502,329
1940,-3.930908203,-2.80859375,-4.915527344,501,-483,347
1945,-3.935058594,-2.806152344,-4.909179688,465,-507,337
1950,-3.932861328,-2.810302734,-4.918457031,464,-515,370
1955,-3.931884766,-2.805664063,-4.913330078,486,-513,351
1960,-3.936279297,-2.810791016,-4.915771484,501,-462,335
1965,-3.932617188,-2.806884766,-4.911132813,436,-479,317
1970,-3.932617188,-2.808837891,-4.916748047,486,-486,320
1975,-3.932617188,-2.809570313,-4.917236328,469,-496,335
1980,-3.933349609,-2.808105469,-4.916748047,488,-491,315
1985,-3.933837891,-2.812011719,-4.915527344,478,-510,311
1990,-3.931884766,-2.806152344,-4.915771484,490,-509,342
1995,-3.934082031,-2.806640625,-4.916503906,463,-522,336
2000,-3.931396484,-2.805419922,-4.913330078,481,-489,347
2005,-3.9375,-2.810058594,-4.916503906,495,-498,340
2010,-3.934814453,-2.806396484,-4.918212891,474,-495,308
2015,-3.931396484,-2.812255859,-4.916992188,469,-468,355
2020,-3.933105469,-2.808837891,-4.915771484,477,-486,336
2025,-3.932128906,-2.806884766,-4.915283203,479,-485,329
2030,-3.931884766,-2.807861328,-4.921630859,478,-477,329
2035,-3.934570313,-2.812011719,-4.919921875,473,-523,335
2040,-3.935302734,-2.809814453,-4.918457031,493,-476,330
2045,-3.935058594,-2.806396484,-4.916992188,478,-476,348
2050,-3.931152344,-2.812744141,-4.91015625,508,-486,338
2055,-3.929199219,-2.811035156,-4.9140625,470,-478,338
2060,-3.9296875,-2.805908203,-4.920410156,496,-495,325
2066,-3.933349609,-2.804931641,-4.916015625,476,-472,320
2071,-3.934326172,-2.807861328,-4.918701172,492,-476,328
2076,-3.935546875,-2.80859375,-4.915283203,459,-467,342
2081,-3.932128906,-2.806396484,-4.911865234,498,-452,342
2086,-3.929931641,-2.812255859,-4.920166016,471,-479,353
2091,-3.931152344,-2.808837891,-4.916015625,494,-487,360
2096,-3.935791016,-2.809570313,-4.916992188,465,-498,340
2101,-3.932128906,-2.811035156,-4.919921875,473,-517,329
2106,-3.931884766,-2.8125,-4.919433594,505,-516,324
2111,-3.934570313,-2.806396484,-4.915039063,477,-504,333
2116,-3.930664063,-2.803222656,-4.924072266,464,-480,350
2121,-3.930419922,-2.807617188,-4.917480469,497,-474,341
2126,-3.935058594,-2.807373047,-4.921142578,475,-464,358
2131,-3.937011719,-2.806396484,-4.914550781,453,-466,334
2136,-3.930664063,-2.805908203,-4.915039063,471,-482,319
2141,-3.936035156,-2.809326172,-4.915039063,494,-513,352
2146,-3.931640625,-2.806396484,-4.921630859,480,-503,326
2151,-3.929199219,-2.808105469,-4.918701172,486,-501,326
2156,-3.934814453,-2.812255859,-4.925537109,468,-533,335
2161,-3.927246094,-2.804931641,-4.912597656,484,-509,359
2166,-3.929199219,-2.808105469,-4.915527344,485,-502,354
2171,-3.934326172,-2.810058594,-4.919189453,481,-466,342
2176,-3.935791016,-2.805419922,-4.915283203,475,-454,337
2181,-3.934326172,-2.806640625,-4.917480469,463,-453,328
2186,-3.934082031,-2.810546875,-4.917236328,488,-467,334
2191,-3.928955078,-2.805908203,-4.920410156,480,-491,331
2196,-3.9375,-2.807128906,-4.921142578,482,-477,328
2202,-3.932617188,-2.814453125,-4.925537109,489,-500,318
2207,-3.934570313,-2.809326172,-4.918945313,485,-531,356
2212,-3.93359375,-2.805419922,-4.911621094,467,-515,340
2217,-3.931884766,-2.810058594,-4.919433594,478,-496,353
2222,-3.928710938,-2.809082031,-4.915527344,479,-492,349
2227,-3.935058594,-2.806396484,-4.911132813,484,-512,361
2232,-3.932128906,-2.810302734,-4.920654297,489,-464,324
2237,-3.931884766,-2.805908203,-4.919189453,483,-468,350
2242,-3.933837891,-2.807128906,-4.910644531,459,-471,329
2247,-3.936035156,-2.808837891,-4.911132813,501,-467,332
2252,-3.929199219,-2.806640625,-4.921386719,457,-505,347
2257,-3.932861328,-2.809570313,-4.916748047,469,-501,357
2262,-3.934326172,-2.807128906,-4.917236328,483,-498,345
2267,-3.932373047,-2.809326172,-4.9140625,483,-515,360
2272,-3.934570313,-2.808349609,-4.916748047,490,-506,339
2277,-3.935546875,-2.807373047,-4.9140625,468,-473,318
2282,-3.931396484,-2.807373047,-4.911865234,479,-487,329
2287,-3.935058594,-2.812744141,-4.914550781,472,-497,307
2292,-3.934326172,-2.80859375,-4.913330078,504,-495,321
2297,-3.934814453,-2.807617188,-4.916259766,476,-503,326
2302,-3.932373047,-2.810302734,-4.913085938,488,-494,343
2307,-3.933837891,-2.809570313,-4.917236328,480,-502,329
2312,-3.931884766,-2.807128906,-4.916015625,485,-498,341
2317,-3.934326172,-2.807373047,-4.924804688,497,-526,350
2322,-3.928955078,-2.811279297,-4.917724609,489,-493,311
2327,-3.933349609,-2.807617188,-4.914794922,496,-508,334
2332,-3.935302734,-2.811279297,-4.916259766,473,-491,350
2338,-3.933349609,-2.809326172,-4.922119141,490,-502,330
2343,-3.935546875,-2.806396484,-4.923828125,466,-487,320
2348,-3.934814453,-2.809326172,-4.916992188,470,-497,319
2353,-3.930664063,-2.808349609,-4.915039063,485,-493,321
2358,-3.930908203,-2.809326172,-4.913085938,492,-511,329
2363,-3.935546875,-2.808349609,-4.912109375,477,-491,363
2368,-3.930908203,-2.809814453,-4.918212891,499,-511,344
2373,-3.931396484,-2.807128906,-4.917236328,500,-483,365
2378,-3.93359375,-2.808349609,-4.912353516,467,-502,361
2383,-3.934326172,-2.806640625,-4.918212891,478,-486,370
2388,-3.930419922,-2.809326172,-4.915527344,485,-498,322
2393,-3.93359375,-2.808837891,-4.919921875,474,-477,319
2398,-3.93359375,-2.80859375,-4.914306641,478,-496,329
2403,-3.936035156,-2.810302734,-4.919921875,486,-491,323
2408,-3.934326172,-2.809570313,-4.914550781,474,-481,334
2413,-3.932861328,-2.807128906,-4.91796875,484,-513,342
2418,-3.936279297,-2.811523438,-4.912841797,473,-489,343
2423,-3.932861328,-2.809082031,-4.91796875,496,-490,336
2428,-3.931640625,-2.804931641,-4.911865234,458,-482,320
2433,-3.930175781,-2.810546875,-4.915771484,460,-499,334
2438,-3.929443359,-2.811035156,-4.921386719,481,-495,337
2443,-3.937988281,-2.807373047,-4.917724609,478,-487,321
2448,-3.930419922,-2.806152344,-4.920166016,472,-461,333
2453,-3.935302734,-2.804199219,-4.916015625,478,-510,314
2458,-3.933837891,-2.807617188,-4.916748047,485,-514,315
2463,-3.93359375,-2.810058594,-4.910400391,477,-502,357
2468,-3.929443359,-2.810302734,-4.913818359,485,-496,335
2474,-3.93359375,-2.809326172,-4.915283203,491,-484,321
2479,-3.934570313,-2.809570313,-4.914306641,469,-484,338
2484,-3.935302734,-2.810791016,-4.919189453,486,-502,346
2489,-3.930908203,-2.809082031,-4.916503906,480,-499,343
2494,-3.930664063,-2.807861328,-4.910644531,469,-476,325
2499,-3.931396484,-2.811279297,-4.924804688,493,-474,337
2504,-3.9375,-2.811279297,-4.918457031,490,-486,326
2509,-3.932617188,-2.809326172,-4.911865234,479,-502,342
2514,-3.937011719,-2.809814453,-4.915771484,485,-496,330
2519,-3.930175781,-2.809326172,-4.921875,489,-514,327
2524,-3.931640625,-2.809570313,-4.917480469,459,-496,346
2529,-3.934570313,-2.80859375,-4.912597656,470,-507,349
2534,-3.931396484,-2.811767578,-4.918212891,492,-490,352
2539,-3.930664063,-2.807617188,-4.918457031,484,-492,348
2544,-3.93359375,-2.808837891,-4.916503906,474,-459,335
2549,-3.937255859,-2.810058594,-4.918457031,494,-488,338
2554,-3.930175781,-2.807373047,-4.919921875,464,-488,347
2559,-3.928710938,-2.806640625,-4.921875,475,-491,322
2564,-3.933837891,-2.804443359,-4.918701172,481,-505,330
2569,-3.926269531,-2.809814453,-4.9140625,470,-505,334
2574,-3.933837891,-2.80859375,-4.919189453,485,-504,333
2579,-3.936035156,-2.806152344,-4.915039063,487,-488,328
2584,-3.930908203,-2.808349609,-4.917724609,480,-470,358
2589,-3.935058594,-2.808349609,-4.915039063,476,-502,321
2594,-3.93359375,-2.805908203,-4.9140625,453,-479,319
2599,-3.928955078,-2.805908203,-4.912353516,501,-488,335
2604,-3.936523438,-2.809082031,-4.922607422,483,-493,321
2610,-3.932617188,-2.809570313,-4.920166016,490,-474,339
2615,-3.930175781,-2.808837891,-4.915771484,465,-495,345
2620,-3.932861328,-2.810302734,-4.915527344,476,-503,352
2625,-3.933837891,-2.811279297,-4.914306641,484,-507,345
2630,-3.936279297,-2.807861328,-4.919189453,471,-508,336
2635,-3.932128906,-2.812011719,-4.919189453,492,-516,318
2640,-3.9296875,-2.80859375,-4.912353516,487,-497,354
2645,-3.930908203,-2.809326172,-4.921386719,473,-508,351
2650,-3.936523438,-2.807861328,-4.916748047,466,-492,336
2655,-3.934570313,-2.810791016,-4.920898438,481,-484,316
2660,-3.930664063,-2.808105469,-4.921386719,459,-490,329
2665,-3.934814453,-2.808837891,-4.913330078,485,-472,332
2670,-3.932861328,-2.810058594,-4.921630859,484,-474,331
2675,-3.935791016,-2.806640625,-4.915527344,459,-482,322
2680,-3.935546875,-2.807861328,-4.916015625,485,-490,318
2685,-3.928222656,-2.809814453,-4.915039063,474,-490,326
2690,-3.937744141,-2.806884766,-4.914306641,487,-503,332
2695,-3.934082031,-2.806396484,-4.907714844,478,-494,335
2700,-3.933349609,-2.807861328,-4.916015625,477,-515,340
2705,-3.934570313,-2.804931641,-4.916748047,500,-480,322
2710,-3.933837891,-2.806396484,-4.918212891,496,-482,328
2715,-3.928710938,-2.809814453,-4.909912109,468,-474,319
2720,-3.933105469,-2.810546875,-4.921386719,494,-479,351
2725,-3.933349609,-2.810791016,-4.918457031,492,-478,335
2730,-3.928222656,-2.806884766,-4.91796875,500,-486,347
2735,-3.930175781,-2.810058594,-4.917480469,489,-472,318
2740,-3.936035156,-2.806640625,-4.917724609,497,-501,342
2746,-3.929443359,-2.805175781,-4.918701172,482,-522,324
2751,-3.935546875,-2.810546875,-4.914550781,474,-499,341
2756,-3.932373047,-2.807617188,-4.916259766,482,-526,329
2761,-3.932373047,-2.808105469,-4.91015625,469,-487,349
2766,-3.934814453,-2.808105469,-4.919189453,471,-484,351
2771,-3.93359375,-2.811035156,-4.919433594,470,-488,339
2776,-3.932861328,-2.808105469,-4.920654297,490,-471,318
2781,-3.935302734,-2.805908203,-4.916259766,466,-474,331
2786,-3.933349609,-2.808105469,-4.922119141,472,-482,331
2791,-3.930175781,-2.809326172,-4.916503906,481,-488,346
2796,-3.934814453,-2.810546875,-4.912841797,458,-472,346
2801,-3.931396484,-2.809326172,-4.920898438,475,-491,354
2806,-3.933105469,-2.811279297,-4.917236328,474,-510,329
2811,-3.937255859,-2.808837891,-4.915039063,453,-521,336
2816,-3.935546875,-2.810546875,-4.913818359,471,-506,352
2821,-3.93359375,-2.807861328,-4.913085938,487,-497,341
2826,-3.930908203,-2.811035156,-4.916503906,474,-479,309
2831,-3.93359375,-2.807373047,-4.911376953,463,-487,344
2836,-3.928710938,-2.806884766,-4.9140625,488,-490,323
2841,-3.931640625,-2.808837891,-4.912353516,457,-470,330
2846,-3.929931641,-2.805908203,-4.917480469,465,-477,346
2851,-3.9296875,-2.807861328,-4.915039063,492,-478,360
2856,-3.933837891,-2.810546875,-4.922607422,484,-498,335
2861,-3.934570313,-2.806640625,-4.920410156,490,-488,339
2866,-3.929931641,-2.807373047,-4.918457031,484,-462,355
2871,-3.929931641,-2.812255859,-4.916259766,464,-478,330
2876,-3.9375,-2.808837891,-4.914306641,475,-480,349
2882,-3.933837891,-2.810791016,-4.915771484,498,-489,322
2887,-3.930419922,-2.810058594,-4.912109375,474,-491,351
2892,-3.934814453,-2.807373047,-4.916503906,496,-479,356
2897,-3.935791016,-2.808349609,-4.916503906,492,-473,340
2902,-3.932861328,-2.806396484,-4.924804688,493,-492,346
2907,-3.933837891,-2.811523438,-4.916992188,482,-490,339
2912,-3.933105469,-2.807128906,-4.914794922,477,-484,331
2917,-3.929931641,-2.811035156,-4.913574219,466,-494,315
2922,-3.935791016,-2.811035156,-4.924804688,487,-477,339
2927,-3.930908203,-2.808837891,-4.910888672,481,-478,340
2932,-3.930175781,-2.804443359,-4.919921875,451,-482,337
2937,-3.934570313,-2.811279297,-4.918945313,483,-497,363
2942,-3.937255859,-2.809326172,-4.922363281,483,-504,351
2947,-3.937988281,-2.809082031,-4.911376953,469,-494,357
2952,-3.931640625,-2.8125,-4.908935547,491,-532,336
2957,-3.935791016,-2.811523438,-4.915771484,484,-511,317
2962,-3.932128906,-2.807128906,-4.921142578,473,-467,338
2967,-3.934326172,-2.807861328,-4.921142578,488,-495,342
2972,-3.934082031,-2.809814453,-4.918457031,491,-490,340
2977,-3.935302734,-2.8046875,-4.918701172,474,-464,348
2982,-3.934570313,-2.810791016,-4.917480469,485,-470,338
2987,-3.932373047,-2.809570313,-4.919433594,511,-500,343
2992,-3.935302734,-2.806396484,-4.914550781,481,-498,343
2997,-3.933349609,-2.808349609,-4.918212891,490,-507,328
3002,-3.932373047,-2.809326172,-4.909179688,471,-497,336
3007,-3.937255859,-2.807617188,-4.923095703,492,-500,331
3012,-3.936523438,-2.809082031,-4.922851563,478,-511,349
3018,-3.931884766,-2.811767578,-4.920654297,501,-507,327
3023,-3.936523438,-2.809570313,-4.911132813,464,-485,342
3028,-3.931884766,-2.809326172,-4.915283203,476,-496,349
3033,-3.930419922,-2.806152344,-4.917236328,490,-476,345
3038,-3.935546875,-2.808349609,-4.918701172,487,-483,355
3043,-3.938720703,-2.808105469,-4.921875,466,-470,324
3048,-3.93359375,-2.80859375,-4.911376953,481,-521,344
3053,-3.932128906,-2.812744141,-4.911376953,476,-481,322
3058,-3.932861328,-2.80859375,-4.915527344,470,-495,319
3063,-3.927734375,-2.809570313,-4.921142578,458,-511,316
3068,-3.932128906,-2.811523438,-4.91796875,513,-506,359
3073,-3.933837891,-2.80859375,-4.912353516,477,-498,316
3078,-3.927001953,-2.802978516,-4.916015625,462,-486,347
3083,-3.935058594,-2.807861328,-4.913574219,479,-484,335
3088,-3.932861328,-2.808837891,-4.919677734,498,-494,349
3093,-3.933105469,-2.80859375,-4.915527344,494,-497,352
3098,-3.932617188,-2.810546875,-4.915283203,495,-482,311
3103,-3.933837891,-2.806152344,-4.918212891,481,-488,343
3108,-3.9375,-2.806884766,-4.920410156,476,-515,353
3113,-3.936523438,-2.809570313,-4.914550781,481,-488,331
3118,-3.931396484,-2.810791016,-4.912353516,489,-482,372
3123,-3.930419922,-2.807861328,-4.921142578,492,-500,339
3128,-3.933349609,-2.805908203,-4.914794922,459,-492,340
3133,-3.930419922,-2.811523438,-4.915771484,484,-492,320
3138,-3.935791016,-2.809082031,-4.914550781,490,-497,325
3143,-3.934082031,-2.805419922,-4.909179688,476,-506,319
3148,-3.936279297,-2.809570313,-4.913574219,481,-483,342
3154,-3.932861328,-2.810546875,-4.918701172,471,-478,315
3159,-3.940673828,-2.805664063,-4.916503906,483,-496,349
3164,-3.932861328,-2.810791016,-4.913085938,483,-489,314
3169,-3.931884766,-2.811035156,-4.916748047,489,-483,339
3174,-3.936279297,-2.809814453,-4.913085938,493,-500,319
3179,-3.934570313,-2.805175781,-4.916748047,460,-476,340
3184,-3.932617188,-2.806640625,-4.911865234,464,-487,334
3189,-3.936523438,-2.811279297,-4.923828125,489,-471,342
3194,-3.928955078,-2.809570313,-4.915283203,454,-482,326
3199,-3.929199219,-2.806884766,-4.926269531,488,-495,337
3204,-3.93359375,-2.807861328,-4.923095703,488,-491,335
3209,-3.937255859,-2.808349609,-4.915039063,478,-495,353
3214,-3.932128906,-2.805664063,-4.922363281,473,-486,349
3219,-3.936035156,-2.812011719,-4.913818359,462,-494,343
3224,-3.935058594,-2.806152344,-4.913818359,467,-487,337
3229,-3.930175781,-2.807617188,-4.913818359,462,-467,330
3234,-3.931396484,-2.807861328,-4.919189453,478,-495,351
3239,-3.93359375,-2.807373047,-4.919433594,473,-491,307
3244,-3.936767578,-2.805175781,-4.916748047,484,-507,320
3249,-3.928710938,-2.810546875,-4.912353516,471,-489,350
3254,-3.937988281,-2.807861328,-4.922851563,479,-509,354
3259,-3.932617188,-2.803466797,-4.914550781,468,-512,362
3264,-3.933349609,-2.807617188,-4.918945313,485,-478,328
3269,-3.936279297,-2.812011719,-4.912353516,478,-477,326
3274,-3.932861328,-2.804199219,-4.916748047,472,-472,357
3279,-3.934570313,-2.808349609,-4.915527344,507,-482,313
3284,-3.931640625,-2.812255859,-4.919433594,452,-503,347
3290,-3.9296875,-2.809570313,-4.913574219,476,-491,324
3295,-3.932861328,-2.807861328,-4.914306641,491,-501,328
3300,-3.931396484,-2.811767578,-4.916748047,470,-486,349
3305,-3.929443359,-2.811279297,-4.915039063,478,-473,334
3310,-3.933837891,-2.809814453,-4.914550781,480,-499,353
3315,-3.932373047,-2.807861328,-4.917480469,475,-521,357
3320,-3.932617188,-2.808105469,-4.915283203,489,-500,331
3325,-3.9375,-2.807128906,-4.913085938,472,-484,327
3330,-3.935302734,-2.809814453,-4.914306641,450,-483,349
3335,-3.924804688,-2.808837891,-4.924804688,493,-481,332
3340,-3.937011719,-2.807861328,-4.921386719,471,-481,361
3345,-3.937988281,-2.812744141,-4.913085938,482,-494,318
3350,-3.934814453,-2.809326172,-4.920898438,483,-492,347
3355,-3.934570313,-2.807861328,-4.910644531,473,-489,348
3360,-3.928222656,-2.807373047,-4.919189453,471,-515,330
3365,-3.929199219,-2.8125,-4.920410156,493,-523,340
3370,-3.934326172,-2.806152344,-4.910644531,470,-500,344
3375,-3.934326172,-2.806152344,-4.920898438,460,-490,361
3380,-3.931152344,-2.808349609,-4.918212891,478,-485,351
3385,-3.935546875,-2.813232422,-4.916748047,477,-487,343
3390,-3.936767578,-2.809082031,-4.914794922,467,-498,317
3395,-3.930908203,-2.811035156,-4.919433594,460,-494,313
3400,-3.936279297,-2.807617188,-4.91796875,484,-478,341
3405,-3.929443359,-2.808105469,-4.917236328,487,-480,358
3410,-3.932373047,-2.807128906,-4.914794922,484,-495,354
3415,-3.933349609,-2.812255859,-4.916259766,483,-508,313
3420,-3.929931641,-2.810302734,-4.916748047,476,-489,346
3426,-3.93359375,-2.805419922,-4.913330078,470,-485,335
3431,-3.935546875,-2.812011719,-4.916015625,487,-475,325
3436,-3.928466797,-2.807617188,-4.919189453,501,-490,318
3441,-3.93359375,-2.808349609,-4.922119141,491,-499,320
3446,-3.935546875,-2.810546875,-4.911865234,466,-494,321
3451,-3.934082031,-2.809570313,-4.917236328,496,-493,318
3456,-3.938232422,-2.806884766,-4.917724609,475,-496,355
3461,-3.934082031,-2.809570313,-4.919921875,488,-491,340
3466,-3.930175781,-2.806152344,-4.913330078,448,-501,333
3471,-3.935302734,-2.806152344,-4.916259766,484,-512,334
3476,-3.933105469,-2.807861328,-4.913085938,483,-499,310
3481,-3.925537109,-2.809814453,-4.912353516,478,-504,328
3486,-3.936035156,-2.810546875,-4.918212891,488,-489,361
3491,-3.934082031,-2.808105469,-4.917236328,494,-479,344
3496,-3.927734375,-2.808105469,-4.923095703,469,-504,344
3501,-3.931396484,-2.813232422,-4.923095703,490,-483,338
3506,-3.935302734,-2.806884766,-4.918212891,472,-486,323
3511,-3.933837891,-2.808105469,-4.917724609,448,-497,344
3516,-3.936279297,-2.810302734,-4.918212891,480,-498,351
3521,-3.937255859,-2.808349609,-4.920654297,484,-479,356
3526,-3.935302734,-2.804931641,-4.920898438,479,-488,345
3531,-3.933349609,-2.810791016,-4.919189453,477,-483,309
3536,-3.929931641,-2.808105469,-4.923095703,491,-493,338
3541,-3.930419922,-2.810546875,-4.91796875,474,-496,346
3546,-3.932861328,-2.809326172,-4.920410156,471,-509,326
3551,-3.928710938,-2.809570313,-4.913330078,447,-495,320
3556,-3.931884766,-2.804931641,-4.922851563,471,-478,318
3562,-3.937011719,-2.807617188,-4.910400391,471,-507,332
3567,-3.933105469,-2.808349609,-4.920410156,471,-476,361
3572,-3.933837891,-2.806884766,-4.917236328,524,-483,335
3577,-3.934082031,-2.809082031,-4.922119141,473,-486,351
3582,-3.929199219,-2.808105469,-4.915527344,471,-481,353
3587,-3.936523438,-2.811767578,-4.914550781,482,-514,327
3592,-3.932617188,-2.809570313,-4.920654297,457,-490,339
3597,-3.933349609,-2.807373047,-4.912597656,481,-510,308
3602,-3.931884766,-2.805419922,-4.917236328,479,-526,315
3607,-3.937255859,-2.809082031,-4.916259766,491,-480,352
3612,-3.928222656,-2.810058594,-4.915771484,471,-507,328
3617,-3.933349609,-2.809570313,-4.913330078,472,-474,331
3622,-3.934326172,-2.803222656,-4.920166016,481,-483,354
3627,-3.932861328,-2.810302734,-4.915283203,481,-500,357
3632,-3.929931641,-2.810791016,-4.917724609,476,-483,334
3637,-3.935791016,-2.807373047,-4.919677734,479,-484,301
3642,-3.937744141,-2.808349609,-4.914550781,478,-492,327
3647,-3.935302734,-2.810058594,-4.922119141,465,-497,332
3652,-3.931640625,-2.809082031,-4.916748047,491,-512,327
3657,-3.9375,-2.806152344,-4.912597656,472,-501,325
3662,-3.932861328,-2.811523438,-4.918701172,460,-505,332
3667,-3.931152344,-2.808105469,-4.9140625,490,-493,339
3672,-3.933837891,-2.807861328,-4.916015625,480,-486,343
3677,-3.930175781,-2.808837891,-4.919189453,487,-469,326
3682,-3.933837891,-2.806152344,-4.921630859,475,-478,336
3687,-3.935546875,-2.810058594,-4.916015625,478,-485,333
3692,-3.933105469,-2.810058594,-4.918212891,491,-487,331
3698,-3.932861328,-2.805664063,-4.921386719,488,-494,346
3703,-3.935302734,-2.806396484,-4.918945313,475,-486,366
3708,-3.932617188,-2.809814453,-4.915771484,473,-482,358
3713,-3.931152344,-2.806152344,-4.914550781,483,-479,319
3718,-3.930908203,-2.808349609,-4.915527344,481,-513,320
3723,-3.935058594,-2.810546875,-4.909179688,486,-490,338
3728,-3.93359375,-2.807861328,-4.915527344,483,-515,326
3733,-3.932128906,-2.80859375,-4.913574219,493,-496,351
3738,-3.937255859,-2.806884766,-4.919189453,491,-479,352
3743,-3.931640625,-2.806884766,-4.919433594,484,-469,339
3748,-3.934326172,-2.810302734,-4.921142578,482,-477,366
3753,-3.931152344,-2.807861328,-4.915039063,482,-485,330
3758,-3.936279297,-2.808837891,-4.915771484,478,-478,336
3763,-3.932128906,-2.809326172,-4.918945313,476,-508,322
3768,-3.931152344,-2.812988281,-4.917236328,473,-493,342
3773,-3.934082031,-2.804931641,-4.913818359,464,-513,331
3778,-3.931396484,-2.809814453,-4.917724609,480,-500,367
3783,-3.933349609,-2.804931641,-4.918701172,508,-512,310
3788,-3.932617188,-2.806396484,-4.916748047,490,-487,352
3793,-3.933349609,-2.808105469,-4.916015625,472,-484,334
3798,-3.931884766,-2.810791016,-4.913330078,496,-491,331
3803,-3.933105469,-2.811035156,-4.920898438,474,-480,330
3808,-3.934814453,-2.810546875,-4.917480469,475,-490,329
3813,-3.926513672,-2.811279297,-4.914306641,493,-496,342
3818,-3.934326172,-2.810302734,-4.919921875,463,-498,354
3823,-3.932373047,-2.805419922,-4.916503906,489,-491,335
3828,-3.930664063,-2.808105469,-4.912841797,471,-501,345
3834,-3.934570313,-2.811035156,-4.916503906,480,-507,329
3839,-3.929443359,-2.802490234,-4.9140625,461,-506,348
3844,-3.928222656,-2.805908203,-4.914794922,491,-491,341
3849,-3.933349609,-2.809326172,-4.915039063,487,-507,334
3854,-3.935302734,-2.809082031,-4.917724609,480,-486,320
3859,-3.934326172,-2.809082031,-4.918945313,462,-503,350
3864,-3.931152344,-2.813232422,-4.914306641,477,-494,318
3869,-3.933105469,-2.806884766,-4.919433594,484,-489,302
3874,-3.929931641,-2.80859375,-4.918212891,483,-492,325
3879,-3.932617188,-2.811035156,-4.915527344,480,-492,325
3884,-3.930908203,-2.806884766,-4.917724609,475,-493,341
3889,-3.932128906,-2.799316406,-4.913574219,460,-487,338
3894,-3.931640625,-2.807373047,-4.920898438,479,-515,367
3899,-3.931640625,-2.810302734,-4.914306641,469,-485,352
3904,-3.934326172,-2.808105469,-4.918701172,503,-516,309
3909,-3.93359375,-2.808837891,-4.914550781,471,-510,313
3914,-3.934326172,-2.804199219,-4.920410156,463,-494,347
3919,-3.936279297,-2.810302734,-4.916503906,461,-483,307
3924,-3.93359375,-2.804931641,-4.916503906,478,-488,336
3929,-3.932128906,-2.808837891,-4.915771484,456,-474,338
3934,-3.934570313,-2.806152344,-4.917236328,486,-467,343
3939,-3.936279297,-2.809814453,-4.911865234,469,-504,342
3944,-3.935058594,-2.809326172,-4.909912109,476,-500,347
3949,-3.935302734,-2.809814453,-4.913818359,482,-489,329
3954,-3.937744141,-2.808349609,-4.919189453,467,-480,362
3959,-3.931152344,-2.811767578,-4.91796875,488,-508,306
3964,-3.932861328,-2.810302734,-4.919677734,473,-488,339
3970,-3.931152344,-2.80859375,-4.913330078,470,-512,316
3975,-3.928466797,-2.804199219,-4.916015625,479,-504,320
3980,-3.931152344,-2.808349609,-4.915283203,497,-510,321
3985,-3.934570313,-2.811523438,-4.909667969,471,-479,368
3990,-3.932128906,-2.806884766,-4.922119141,480,-487,330
3995,-3.930908203,-2.810302734,-4.914550781,495,-488,325
4000,-3.934082031,-2.811279297,-4.916015625,495,-482,368
4005,-3.929443359,-2.805175781,-4.913574219,482,-465,341
4010,-3.933105469,-2.807617188,-4.917236328,474,-484,313
4015,-3.932861328,-2.810791016,-4.918212891,492,-487,345
4020,-3.932373047,-2.807861328,-4.921630859,497,-488,323
4025,-3.933837891,-2.810546875,-4.919921875,469,-513,329
4030,-3.928955078,-2.812011719,-4.914550781,468,-490,333
4035,-3.932617188,-2.807617188,-4.920410156,479,-505,337
4040,-3.933349609,-2.806884766,-4.915771484,461,-488,332
4045,-3.932861328,-2.805908203,-4.916992188,488,-498,332
4050,-3.935791016,-2.808105469,-4.918212891,502,-507,343
4055,-3.936279297,-2.809326172,-4.915039063,491,-471,327
4060,-3.931396484,-2.810058594,-4.925292969,487,-489,313
4065,-3.930175781,-2.807128906,-4.918945313,472,-506,352
4070,-3.930908203,-2.809570313,-4.915283203,485,-489,342
4075,-3.931152344,-2.807617188,-4.917724609,490,-520,320
4080,-3.931640625,-2.807617188,-4.917236328,493,-511,339
4085,-3.934570313,-2.809814453,-4.909179688,487,-511,345
4090,-3.932373047,-2.80859375,-4.911376953,480,-499,366
4095,-3.934082031,-2.808837891,-4.919677734,492,-474,343
4100,-3.931396484,-2.808349609,-4.921630859,486,-479,311
4106,-3.932617188,-2.803955078,-4.915527344,467,-502,306
4111,-3.932373047,-2.807128906,-4.918457031,482,-452,328
4116,-3.931396484,-2.809326172,-4.920654297,473,-474,319
4121,-3.936035156,-2.810302734,-4.919677734,486,-498,322
4126,-3.934082031,-2.806152344,-4.914550781,479,-485,356
4131,-3.932373047,-2.810791016,-4.918212891,487,-490,297
4136,-3.933349609,-2.808105469,-4.912109375,480,-485,317
4141,-3.932617188,-2.80859375,-4.918701172,469,-498,344
4146,-3.928710938,-2.80859375,-4.916259766,485,-488,336
4151,-3.934570313,-2.804931641,-4.9296875,482,-511,326
4156,-3.934570313,-2.804443359,-4.910400391,481,-484,331
4161,-3.931884766,-2.805908203,-4.914306641,479,-500,325
4166,-3.937744141,-2.809082031,-4.915771484,468,-497,354
4171,-3.927978516,-2.809570313,-4.916259766,482,-501,325
4176,-3.931152344,-2.809570313,-4.915039063,466,-480,349
4181,-3.934814453,-2.814208984,-4.913330078,475,-523,356
4186,-3.933349609,-2.809082031,-4.91796875,467,-494,340
4191,-3.933349609,-2.810791016,-4.919677734,479,-503,348
4196,-3.937744141,-2.812011719,-4.914550781,470,-491,304
4201,-3.933105469,-2.810058594,-4.916992188,465,-490,352
4206,-3.930908203,-2.807128906,-4.913818359,497,-479,341
4211,-3.931152344,-2.807128906,-4.918212891,478,-482,325
4216,-3.929931641,-2.80859375,-4.920898438,472,-492,335
4221,-3.933105469,-2.805175781,-4.914794922,487,-474,322
4226,-3.931396484,-2.813964844,-4.913818359,476,-495,354
4231,-3.929199219,-2.807373047,-4.913574219,487,-494,329
4236,-3.934326172,-2.805664063,-4.914550781,491,-495,337
4242,-3.932128906,-2.807128906,-4.916259766,461,-512,332
4247,-3.928955078,-2.807617188,-4.913574219,505,-494,353
4252,-3.934814453,-2.811279297,-4.919921875,476,-511,324
4257,-3.935302734,-2.809570313,-4.913574219,490,-483,356
4262,-3.931152344,-2.807373047,-4.913818359,506,-520,318
4267,-3.932128906,-2.812988281,-4.91796875,470,-492,342
4272,-3.928710938,-2.806884766,-4.916015625,478,-492,338
4277,-3.9296875,-2.805419922,-4.914306641,479,-485,325
4282,-3.9375,-2.80859375,-4.926269531,485,-500,319
4287,-3.934082031,-2.8046875,-4.915283203,471,-486,342
4292,-3.929199219,-2.806884766,-4.912353516,468,-496,332
4297,-3.934082031,-2.811035156,-4.916015625,462,-503,358
4302,-3.937255859,-2.807373047,-4.91015625,473,-480,330
4307,-3.9296875,-2.808105469,-4.912353516,481,-501,317
4312,-3.933837891,-2.807373047,-4.916259766,475,-480,346
4317,-3.935302734,-2.804443359,-4.917480469,490,-501,324
4322,-3.932861328,-2.802490234,-4.920166016,473,-480,319
4327,-3.936035156,-2.807373047,-4.916503906,476,-513,345
4332,-3.929931641,-2.809326172,-4.919433594,471,-469,313
4337,-3.934570313,-2.803710938,-4.916992188,490,-505,305
4342,-3.933349609,-2.811767578,-4.920654297,493,-478,324
4347,-3.927001953,-2.806884766,-4.920898438,478,-480,324
4352,-3.931640625,-2.805664063,-4.919433594,475,-509,327
4357,-3.939697266,-2.812744141,-4.915283203,478,-486,354
4362,-3.9296875,-2.806640625,-4.918212891,466,-511,355
4367,-3.934814453,-2.809082031,-4.913085938,485,-491,333
4372,-3.938720703,-2.810791016,-4.911132813,475,-473,335
4378,-3.92578125,-2.8046875,-4.920410156,475,-487,327
4383,-3.936767578,-2.809570313,-4.913085938,484,-476,314
4388,-3.934326172,-2.804199219,-4.921386719,495,-499,328
4393,-3.928466797,-2.806396484,-4.915771484,475,-504,327
4398,-3.93359375,-2.811035156,-4.920166016,484,-494,340
4403,-3.934326172,-2.808349609,-4.922119141,480,-495,329
4408,-3.930175781,-2.805419922,-4.913574219,451,-489,346
4413,-3.931884766,-2.809570313,-4.91796875,471,-492,335
4418,-3.934326172,-2.807861328,-4.916503906,489,-478,344
4423,-3.938720703,-2.807373047,-4.913085938,479,-490,349
4428,-3.931396484,-2.810302734,-4.919433594,497,-498,335
4433,-3.933837891,-2.811035156,-4.918457031,486,-478,327
4438,-3.9375,-2.809326172,-4.9140625,483,-496,323
4443,-3.931396484,-2.806884766,-4.918945313,466,-492,327
4448,-3.929931641,-2.811523438,-4.91796875,473,-498,342
4453,-3.936523438,-2.810546875,-4.918701172,492,-487,345
4458,-3.933349609,-2.807617188,-4.922363281,473,-511,366
4463,-3.932861328,-2.806152344,-4.919921875,491,-512,333
4468,-3.934326172,-2.809814453,-4.917480469,475,-492,343
4473,-3.934570313,-2.80859375,-4.914550781,476,-482,327
4478,-3.934082031,-2.808105469,-4.915283203,477,-469,316
4483,-3.930908203,-2.810791016,-4.913085938,493,-492,327
4488,-3.933837891,-2.812255859,-4.913574219,455,-473,330
4493,-3.935546875,-2.810058594,-4.914306641,492,-477,334
4498,-3.932617188,-2.806396484,-4.915039063,479,-496,311
4503,-3.933105469,-2.807617188,-4.916503906,484,-497,347
4508,-3.933837891,-2.813232422,-4.915527344,477,-501,343
4514,-3.932617188,-2.808349609,-4.924316406,484,-516,318
4519,-3.932861328,-2.809570313,-4.911865234,472,-486,348
4524,-3.93359375,-2.806884766,-4.916503906,473,-479,344
4529,-3.934814453,-2.807617188,-4.911132813,485,-471,303
4534,-3.932128906,-2.810791016,-4.917724609,473,-471,348
4539,-3.934326172,-2.806396484,-4.916992188,473,-481,321
4544,-3.934082031,-2.808837891,-4.915283203,495,-477,333
4549,-3.935058594,-2.806884766,-4.920410156,474,-503,362
4554,-3.9296875,-2.809326172,-4.91796875,473,-472,335
4559,-3.933349609,-2.810791016,-4.916748047,467,-512,332
4564,-3.932861328,-2.812988281,-4.912109375,478,-512,333
4569,-3.934814453,-2.811767578,-4.925292969,475,-509,328
4574,-3.932128906,-2.805419922,-4.916259766,482,-476,348
4579,-3.927734375,-2.806152344,-4.917480469,497,-486,314
4584,-3.935791016,-2.80859375,-4.917724609,481,-469,343
4589,-3.937255859,-2.805419922,-4.916748047,487,-470,318
4594,-3.934570313,-2.805908203,-4.911621094,474,-478,324
4599,-3.935791016,-2.807617188,-4.924316406,492,-489,334
4604,-3.932861328,-2.8046875,-4.921386719,481,-489,319
4609,-3.930419922,-2.804931641,-4.912597656,487,-525,333
4614,-3.93359375,-2.809570313,-4.922607422,494,-513,336
4619,-3.929931641,-2.806640625,-4.9140625,477,-498,319
4624,-3.932861328,-2.807373047,-4.918701172,469,-495,328
4629,-3.938232422,-2.809082031,-4.915771484,511,-478,341
4634,-3.929199219,-2.807373047,-4.920654297,488,-468,350
4639,-3.930664063,-2.802246094,-4.915039063,469,-467,331
4644,-3.930664063,-2.812255859,-4.915527344,475,-487,328
4650,-3.928710938,-2.808349609,-4.923095703,482,-515,340
4655,-3.937011719,-2.809326172,-4.914306641,488,-494,314
4660,-3.935058594,-2.813964844,-4.916503906,468,-496,325
4665,-3.931152344,-2.8125,-4.917236328,481,-497,330
4670,-3.933837891,-2.805664063,-4.916748047,475,-517,339
4675,-3.936767578,-2.80859375,-4.918457031,476,-506,343
4680,-3.931396484,-2.811279297,-4.915039063,489,-502,346
4685,-3.932128906,-2.807861328,-4.912353516,475,-498,324
4690,-3.936035156,-2.808105469,-4.919189453,466,-473,341
4695,-3.928955078,-2.808837891,-4.919189453,487,-465,349
4700,-3.9375,-2.805175781,-4.919677734,491,-493,326
4705,-3.937011719,-2.807861328,-4.91796875,469,-498,328
4710,-3.932617188,-2.810791016,-4.916503906,477,-477,344
4715,-3.932861328,-2.810058594,-4.919433594,473,-500,330
4720,-3.934326172,-2.80859375,-4.915771484,469,-513,314
4725,-3.934814453,-2.806640625,-4.918212891,500,-502,346
4730,-3.933837891,-2.807128906,-4.910400391,483,-497,341
4735,-3.931640625,-2.809570313,-4.919189453,483,-502,323
4740,-3.927001953,-2.806884766,-4.912353516,488,-491,351
4745,-3.927978516,-2.807128906,-4.912841797,470,-495,316
4750,-3.934082031,-2.808837891,-4.915527344,498,-481,321
4755,-3.932617188,-2.805419922,-4.916503906,486,-496,328
4760,-3.930664063,-2.805419922,-4.916748047,475,-500,314
4765,-3.931884766,-2.807373047,-4.923828125,477,-494,357
4770,-3.934570313,-2.810546875,-4.91796875,477,-487,317
4775,-3.934814453,-2.809570313,-4.921630859,472,-463,360
4780,-3.927734375,-2.808349609,-4.915771484,462,-484,344
4786,-3.933837891,-2.809326172,-4.923828125,463,-513,336
4791,-3.936523438,-2.812255859,-4.915039063,499,-471,343
4796,-3.931640625,-2.807617188,-4.908447266,466,-481,332
4801,-3.936035156,-2.807861328,-4.921630859,474,-460,330
4806,-3.933349609,-2.809814453,-4.914550781,464,-483,332
4811,-3.927734375,-2.810302734,-4.913085938,471,-495,333
4816,-3.930419922,-2.810058594,-4.9140625,500,-514,336
4821,-3.93359375,-2.806640625,-4.910888672,471,-507,334
4826,-3.931396484,-2.809570313,-4.916015625,461,-501,318
4831,-3.931396484,-2.810546875,-4.917236328,490,-506,338
4836,-3.937255859,-2.804931641,-4.91796875,490,-472,333
4841,-3.932617188,-2.806640625,-4.914306641,462,-477,336
4846,-3.93359375,-2.812255859,-4.928222656,499,-487,341
4851,-3.934082031,-2.803466797,-4.915283203,466,-476,353
4856,-3.931640625,-2.808837891,-4.909179688,475,-477,342
4861,-3.930664063,-2.806396484,-4.91796875,473,-489,318
4866,-3.932617188,-2.808105469,-4.918701172,476,-499,314
4871,-3.931640625,-2.807373047,-4.916259766,486,-526,348
4876,-3.931396484,-2.807617188,-4.91015625,504,-515,337
4881,-3.929199219,-2.810791016,-4.919433594,494,-491,326
4886,-3.930419922,-2.811035156,-4.917724609,460,-491,320
4891,-3.936279297,-2.807617188,-4.922607422,478,-481,360
4896,-3.931396484,-2.806640625,-4.919921875,473,-478,322
4901,-3.936035156,-2.807128906,-4.924560547,487,-474,340
4906,-3.935546875,-2.807373047,-4.919677734,458,-478,333
4911,-3.933105469,-2.811767578,-4.917480469,497,-510,338
4916,-3.929931641,-2.810302734,-4.919921875,497,-515,333
4921,-3.931640625,-2.807861328,-4.912597656,476,-489,320
4927,-3.930664063,-2.809570313,-4.919677734,493,-498,335
4932,-3.93359375,-2.808837891,-4.911376953,477,-491,333
4937,-3.932617188,-2.809814453,-4.91796875,463,-497,336
4942,-3.934082031,-2.805419922,-4.913574219,472,-521,360
4947,-3.932373047,-2.8125,-4.913818359,485,-468,331
4952,-3.930664063,-2.809814453,-4.916992188,506,-471,342
4957,-3.935791016,-2.806396484,-4.916748047,449,-468,333
4962,-3.936279297,-2.808837891,-4.916748047,495,-476,315
4967,-3.931884766,-2.809814453,-4.918457031,469,-499,331
4972,-3.935546875,-2.807617188,-4.915283203,493,-497,332
4977,-3.932128906,-2.808837891,-4.916748047,494,-512,325
4982,-3.9296875,-2.811279297,-4.911376953,457,-499,355
4987,-3.936767578,-2.805175781,-4.915771484,472,-490,349
4992,-3.934326172,-2.808105469,-4.916503906,496,-500,337
4997,-3.927978516,-2.805908203,-4.912597656,483,-488,332
5002,-3.934326172,-2.810791016,-4.916259766,468,-474,331
5007,-3.934814453,-2.809570313,-4.914550781,488,-492,324
5012,-3.932617188,-2.809814453,-4.918945313,498,-461,317
5017,-3.936279297,-2.809814453,-4.917236328,490,-469,323
5022,-3.937988281,-2.804931641,-4.912109375,473,-483,346
5027,-3.930175781,-2.809082031,-4.915527344,480,-509,333
5032,-3.932617188,-2.811767578,-4.918701172,474,-494,346
5037,-3.932128906,-2.807128906,-4.91796875,464,-506,356
5042,-3.933105469,-2.808837891,-4.912109375,482,-497,350
5047,-3.932861328,-2.809570313,-4.914306641,476,-497,336
5052,-3.929199219,-2.808105469,-4.909912109,486,-465,339
5057,-3.930419922,-2.805908203,-4.918701172,480,-464,352
5063,-3.935058594,-2.812255859,-4.922607422,477,-494,341
5068,-3.929443359,-2.810058594,-4.919189453,472,-468,312
5073,-3.933837891,-2.807128906,-4.915527344,481,-485,335
5078,-3.930664063,-2.806884766,-4.922363281,482,-496,364
5083,-3.929199219,-2.807373047,-4.918701172,476,-490,338
5088,-3.929443359,-2.8046875,-4.918945313,459,-492,359
5093,-3.930175781,-2.810058594,-4.919189453,497,-495,326
5098,-3.933105469,-2.807373047,-4.917724609,490,-520,345
5103,-3.933837891,-2.811523438,-4.917480469,470,-492,358
5108,-3.936035156,-2.809814453,-4.917724609,479,-514,345
5113,-3.929199219,-2.807617188,-4.914306641,485,-495,316
5118,-3.935546875,-2.806640625,-4.9140625,498,-466,330
5123,-3.932373047,-2.804931641,-4.912353516,472,-454,351
5128,-3.932128906,-2.807373047,-4.920654297,475,-477,323
5133,-3.934814453,-2.806640625,-4.922119141,473,-487,339
5138,-3.9375,-2.803710938,-4.916503906,474,-501,333
5143,-3.932861328,-2.813232422,-4.921630859,471,-479,334
5148,-3.929443359,-2.8046875,-4.922607422,481,-515,332
5153,-3.935302734,-2.809326172,-4.911621094,473,-510,321
5158,-3.929443359,-2.810791016,-4.912353516,484,-501,344
5163,-3.934082031,-2.809082031,-4.912109375,495,-489,328
5168,-3.936035156,-2.810058594,-4.915771484,471,-504,313
5173,-3.933105469,-2.805419922,-4.915771484,463,-477,315
5178,-3.931884766,-2.815917969,-4.920654297,491,-493,359
5183,-3.932617188,-2.809570313,-4.920410156,492,-484,332
5188,-3.934814453,-2.804443359,-4.914550781,487,-481,343
5193,-3.937011719,-2.802978516,-4.915771484,481,-478,328
5199,-3.931640625,-2.810791016,-4.920166016,477,-509,329
5204,-3.936035156,-2.809326172,-4.916748047,493,-513,316
5209,-3.933837891,-2.808105469,-4.919433594,498,-482,317
5214,-3.9296875,-2.809326172,-4.914550781,481,-507,319
5219,-3.927734375,-2.803466797,-4.910644531,478,-504,342
5224,-3.933105469,-2.809326172,-4.918945313,487,-502,328
5229,-3.930908203,-2.809814453,-4.918701172,488,-486,342
5234,-3.931640625,-2.808837891,-4.918701172,484,-485,317
5239,-3.93359375,-2.807861328,-4.917480469,479,-474,336
5244,-3.931884766,-2.808837891,-4.915771484,488,-484,333
5249,-3.934570313,-2.806884766,-4.923339844,473,-479,345
5254,-3.936279297,-2.807128906,-4.917724609,476,-490,334
5259,-3.928710938,-2.808349609,-4.920410156,478,-493,328
5264,-3.932617188,-2.811035156,-4.916992188,490,-492,346
5269,-3.935058594,-2.811523438,-4.910644531,492,-466,328
5274,-3.93359375,-2.812744141,-4.910400391,478,-476,334
5279,-3.9296875,-2.809814453,-4.915283203,443,-500,349
5284,-3.931396484,-2.808837891,-4.916015625,478,-498,336
5289,-3.932373047,-2.807861328,-4.915283203,470,-479,339
5294,-3.931152344,-2.811279297,-4.919677734,466,-494,354
5299,-3.935058594,-2.806884766,-4.918212891,492,-484,354
5304,-3.932128906,-2.811035156,-4.916503906,484,-481,333
5309,-3.931640625,-2.8125,-4.914306641,492,-493,338
5314,-3.934814453,-2.807128906,-4.910644531,497,-498,345
5319,-3.933349609,-2.807861328,-4.9140625,490,-478,317
5324,-3.929931641,-2.809082031,-4.913818359,473,-481,334
5329,-3.930664063,-2.810058594,-4.914794922,472,-502,357
5335,-3.93359375,-2.808349609,-4.915283203,481,-481,335
5340,-3.933349609,-2.805908203,-4.911621094,472,-495,346
5345,-3.929199219,-2.806884766,-4.915771484,483,-496,329
5350,-3.931152344,-2.807128906,-4.910888672,501,-500,355
5355,-3.929931641,-2.806396484,-4.914794922,481,-476,339
5360,-3.930419922,-2.805419922,-4.918212891,480,-491,342
5365,-3.93359375,-2.809570313,-4.91796875,481,-495,334
5370,-3.933105469,-2.806396484,-4.912353516,469,-469,320
5375,-3.936035156,-2.806640625,-4.913330078,500,-483,335
5380,-3.933105469,-2.809082031,-4.920654297,485,-525,333
5385,-3.934570313,-2.806884766,-4.917724609,465,-481,324
5390,-3.9296875,-2.807861328,-4.90625,479,-506,345
5395,-3.931884766,-2.809570313,-4.922851563,492,-480,309
5400,-3.932373047,-2.809326172,-4.917480469,480,-508,342
5405,-3.931640625,-2.807861328,-4.916015625,483,-517,329
5410,-3.935058594,-2.8125,-4.914794922,478,-514,342
5415,-3.932617188,-2.808105469,-4.923583984,487,-501,345
5420,-3.933349609,-2.810791016,-4.914794922,475,-500,342
5425,-3.933349609,-2.811767578,-4.916015625,465,-500,349
5430,-3.93359375,-2.810791016,-4.921630859,472,-467,336
5435,-3.936035156,-2.809570313,-4.915039063,492,-493,362
5440,-3.936035156,-2.814453125,-4.912353516,489,-495,343
5445,-3.931640625,-2.805419922,-4.924072266,494,-496,348
5450,-3.93359375,-2.807617188,-4.918457031,491,-500,351
5455,-3.933837891,-2.806884766,-4.919433594,467,-507,323
5460,-3.925292969,-2.808105469,-4.914306641,482,-503,342
5465,-3.9375,-2.810302734,-4.920166016,492,-506,354
5471,-3.935791016,-2.804931641,-4.915283203,477,-480,314
5476,-3.929443359,-2.809570313,-4.916259766,478,-509,316
5481,-3.936279297,-2.808837891,-4.922119141,493,-482,349
5486,-3.934570313,-2.808837891,-4.916259766,477,-481,339
5491,-3.929199219,-2.810791016,-4.915527344,491,-498,327
5496,-3.933105469,-2.811767578,-4.917236328,477,-452,327
5501,-3.930175781,-2.808837891,-4.900878906,495,-481,355
5506,-3.934082031,-2.807128906,-4.918212891,482,-499,328
5511,-3.933105469,-2.811767578,-4.921875,486,-489,337
5516,-3.930419922,-2.806884766,-4.9140625,487,-496,349
5521,-3.930175781,-2.805175781,-4.911621094,498,-495,355
5526,-3.931640625,-2.804443359,-4.917724609,478,-488,355
5531,-3.930664063,-2.808837891,-4.910400391,478,-507,339
5536,-3.930419922,-2.808105469,-4.917724609,465,-487,294
5541,-3.935058594,-2.809082031,-4.915527344,468,-487,333
5546,-3.931640625,-2.80859375,-4.911621094,489,-507,344
5551,-3.932373047,-2.809326172,-4.906982422,484,-497,336
5556,-3.931884766,-2.806884766,-4.91796875,486,-473,327
5561,-3.931884766,-2.812744141,-4.921630859,490,-498,335
5566,-3.93359375,-2.807128906,-4.917480469,481,-508,344
5571,-3.936279297,-2.80859375,-4.916503906,476,-507,341
5576,-3.930908203,-2.808837891,-4.917724609,488,-488,333
5581,-3.932617188,-2.809570313,-4.914550781,488,-508,364
5586,-3.934082031,-2.808349609,-4.915283203,476,-487,342
5591,-3.927734375,-2.808349609,-4.9140625,467,-463,337
5596,-3.933105469,-2.814208984,-4.918457031,466,-500,348
5601,-3.935546875,-2.810302734,-4.914794922,493,-474,322
5607,-3.936035156,-2.804443359,-4.90625,456,-483,322
5612,-3.929931641,-2.808349609,-4.913330078,478,-473,347
5617,-3.932128906,-2.809814453,-4.907470703,474,-470,363
5622,-3.931152344,-2.8046875,-4.919433594,477,-510,355
5627,-3.933349609,-2.812011719,-4.920898438,493,-507,352
5632,-3.936035156,-2.809570313,-4.918701172,493,-506,319
5637,-3.932373047,-2.806640625,-4.917480469,453,-498,345
5642,-3.934814453,-2.813964844,-4.915771484,505,-498,321
5647,-3.934570313,-2.812744141,-4.918457031,472,-479,330
5652,-3.932128906,-2.809082031,-4.917480469,490,-473,333
5657,-3.934570313,-2.812744141,-4.913330078,464,-492,347
5662,-3.928955078,-2.809570313,-4.912841797,470,-493,353
5667,-3.938476563,-2.80859375,-4.921142578,472,-510,362
5672,-3.936523438,-2.809082031,-4.912109375,492,-489,322
5677,-3.932861328,-2.806396484,-4.920654297,452,-491,333
5682,-3.928466797,-2.808105469,-4.916503906,485,-499,325
5687,-3.932373047,-2.807617188,-4.921142578,487,-504,356
5692,-3.9296875,-2.811035156,-4.912109375,490,-495,349
5697,-3.930908203,-2.810058594,-4.920898438,486,-497,351
5702,-3.932373047,-2.811279297,-4.917480469,471,-484,340
5707,-3.932861328,-2.811523438,-4.916015625,474,-479,310
5712,-3.93359375,-2.809326172,-4.914550781,482,-485,351
5717,-3.932373047,-2.807128906,-4.917724609,474,-483,341
5722,-3.932128906,-2.807128906,-4.9140625,471,-473,322
5727,-3.932128906,-2.809326172,-4.925048828,476,-493,359
5732,-3.933349609,-2.809326172,-4.918701172,480,-475,307
5737,-3.933105469,-2.808349609,-4.909423828,485,-504,341
5743,-3.932861328,-2.809814453,-4.917724609,489,-478,337
5748,-3.933349609,-2.808349609,-4.918945313,465,-505,348
5753,-3.932373047,-2.809814453,-4.922607422,493,-501,339
5758,-3.928955078,-2.807373047,-4.915771484,458,-475,340
5763,-3.932373047,-2.806640625,-4.917236328,484,-522,324
5768,-3.934814453,-2.810546875,-4.915527344,477,-477,347
5773,-3.9375,-2.80859375,-4.913574219,489,-491,330
5778,-3.931640625,-2.810302734,-4.917724609,488,-491,337
5783,-3.934814453,-2.806884766,-4.916503906,484,-482,352
5788,-3.935791016,-2.806640625,-4.919189453,489,-501,342
5793,-3.9296875,-2.808349609,-4.919433594,481,-476,353
5798,-3.931396484,-2.806640625,-4.915527344,473,-473,336
5803,-3.932861328,-2.805908203,-4.916992188,495,-510,347
5808,-3.931396484,-2.810546875,-4.924072266,469,-511,335
5813,-3.936279297,-2.810058594,-4.914306641,493,-496,347
5818,-3.931396484,-2.810058594,-4.911376953,464,-507,334
5823,-3.934326172,-2.805419922,-4.91796875,490,-512,332
5828,-3.932373047,-2.809814453,-4.919189453,479,-512,342
5833,-3.933349609,-2.807128906,-4.915527344,463,-486,336
5838,-3.936523438,-2.805175781,-4.923828125,463,-479,337
5843,-3.933105469,-2.806884766,-4.917480469,490,-464,334
5848,-3.931884766,-2.806884766,-4.915527344,483,-485,353
5853,-3.929199219,-2.805908203,-4.913330078,459,-486,324
5858,-3.934082031,-2.812744141,-4.922363281,488,-488,355
5863,-3.935058594,-2.810791016,-4.915527344,505,-497,335
5868,-3.936767578,-2.805419922,-4.915283203,485,-525,344
5873,-3.9375,-2.807128906,-4.915527344,492,-517,346
5879,-3.931884766,-2.805908203,-4.915039063,481,-510,342
5884,-3.932617188,-2.806884766,-4.911376953,464,-479,352
5889,-3.932373047,-2.808349609,-4.910888672,475,-510,328
5894,-3.930908203,-2.811279297,-4.925292969,484,-506,345
5899,-3.935546875,-2.808349609,-4.917724609,483,-491,357
5904,-3.936035156,-2.808349609,-4.915283203,473,-477,332
5909,-3.928955078,-2.808349609,-4.916992188,477,-498,320
5914,-3.934326172,-2.807617188,-4.916992188,491,-480,338
5919,-3.935791016,-2.808349609,-4.924804688,473,-508,326
5924,-3.927978516,-2.809326172,-4.916015625,488,-490,314
5929,-3.932373047,-2.809814453,-4.918212891,491,-475,322
5934,-3.934814453,-2.806884766,-4.914306641,455,-503,340
5939,-3.931152344,-2.807861328,-4.916992188,483,-499,316
5944,-3.932861328,-2.810546875,-4.919921875,501,-483,354
5949,-3.932373047,-2.809814453,-4.916503906,482,-489,335
5954,-3.932373047,-2.807128906,-4.914550781,480,-477,335
5959,-3.932128906,-2.807861328,-4.920410156,494,-479,332
5964,-3.931884766,-2.810302734,-4.916748047,486,-493,310
5969,-3.933105469,-2.805908203,-4.920410156,463,-493,326
5974,-3.932128906,-2.812255859,-4.918457031,494,-476,330
5979,-3.933105469,-2.806640625,-4.922119141,489,-478,307
5984,-3.934326172,-2.808837891,-4.912109375,482,-503,344
5989,-3.932128906,-2.807373047,-4.912597656,481,-490,342
5994,-3.928466797,-2.806884766,-4.913085938,479,-500,344
5999,-3.931152344,-2.805419922,-4.912353516,486,-487,326
6004,-3.934326172,-2.813232422,-4.909912109,481,-473,349
6009,-3.932861328,-2.806152344,-4.913085938,493,-495,336
6015,-3.934326172,-2.80859375,-4.920654297,473,-489,352
6020,-3.93359375,-2.808349609,-4.919433594,486,-507,311
6025,-3.929199219,-2.809082031,-4.923339844,474,-474,343
6030,-3.931396484,-2.806884766,-4.917236328,477,-501,353
6035,-3.936523438,-2.809082031,-4.921386719,461,-485,345
6040,-3.93359375,-2.80859375,-4.921630859,486,-503,350
6045,-3.939453125,-2.807617188,-4.91015625,472,-480,331
6050,-3.937011719,-2.807617188,-4.916503906,471,-496,325
6055,-3.930419922,-2.806640625,-4.916992188,492,-480,344
6060,-3.932128906,-2.810058594,-4.912353516,478,-468,320
6065,-3.93359375,-2.807373047,-4.917480469,459,-471,337
6070,-3.933105469,-2.806396484,-4.915283203,454,-505,318
6075,-3.935058594,-2.806640625,-4.919677734,476,-511,329
6080,-3.933349609,-2.809326172,-4.915771484,497,-498,341
6085,-3.932128906,-2.805419922,-4.911376953,468,-486,337
6090,-3.931396484,-2.80859375,-4.91015625,467,-492,342
6095,-3.935302734,-2.808349609,-4.909667969,500,-472,338
6100,-3.935546875,-2.8046875,-4.912841797,480,-491,319
6105,-3.934570313,-2.810058594,-4.919433594,490,-491,334
6110,-3.933105469,-2.813232422,-4.917724609,482,-495,312
6115,-3.934570313,-2.808105469,-4.913818359,480,-475,331
6120,-3.935058594,-2.808105469,-4.914794922,471,-518,317
6125,-3.930419922,-2.806152344,-4.915283203,468,-486,318
6130,-3.934326172,-2.80859375,-4.916015625,488,-482,358
6135,-3.931640625,-2.806152344,-4.914550781,480,-492,330
6140,-3.930419922,-2.808105469,-4.912109375,469,-492,347
6145,-3.935546875,-2.808349609,-4.917724609,484,-472,351
6151,-3.933349609,-2.8046875,-4.914794922,477,-499,361
6156,-3.930908203,-2.809570313,-4.91796875,490,-493,346
6161,-3.936767578,-2.809814453,-4.915771484,493,-475,325
6166,-3.932373047,-2.806396484,-4.917480469,468,-489,318
6171,-3.935058594,-2.807128906,-4.916015625,469,-500,343
6176,-3.932617188,-2.812255859,-4.918701172,503,-501,329
6181,-3.933105469,-2.805908203,-4.916748047,460,-504,354
6186,-3.927978516,-2.80859375,-4.910888672,460,-505,342
6191,-3.930908203,-2.811523438,-4.914794922,473,-490,348
6196,-3.930664063,-2.804931641,-4.91796875,480,-500,328
6201,-3.932617188,-2.808837891,-4.91015625,485,-487,345
6206,-3.935302734,-2.806884766,-4.911621094,483,-468,338
6211,-3.933837891,-2.810058594,-4.921386719,478,-466,310
6216,-3.936767578,-2.810058594,-4.916748047,466,-468,341
6221,-3.929931641,-2.809814453,-4.916748047,490,-492,340
6226,-3.93359375,-2.807373047,-4.916503906,490,-502,339
6231,-3.931640625,-2.811767578,-4.914550781,494,-484,345
6236,-3.936767578,-2.805664063,-4.905273438,470,-505,324
6241,-3.931640625,-2.807861328,-4.912109375,495,-498,336
6246,-3.934326172,-2.806884766,-4.917480469,492,-489,327
6251,-3.932373047,-2.804443359,-4.918212891,462,-492,354
6256,-3.9296875,-2.807861328,-4.917724609,473,-478,322
6261,-3.936279297,-2.808349609,-4.918701172,479,-474,319
6266,-3.935791016,-2.809570313,-4.921142578,491,-470,335
6271,-3.933837891,-2.805175781,-4.917480469,474,-505,308
6276,-3.934326172,-2.813964844,-4.915039063,485,-510,325
6281,-3.934082031,-2.801025391,-4.915527344,479,-516,341
6287,-3.930419922,-2.808105469,-4.914306641,480,-482,363
6292,-3.937255859,-2.811035156,-4.915527344,482,-480,319
6297,-3.93359375,-2.806152344,-4.916015625,471,-510,316
6302,-3.931640625,-2.807861328,-4.919189453,490,-498,336
6307,-3.936523438,-2.811767578,-4.918701172,491,-501,348
6312,-3.934326172,-2.811035156,-4.919921875,487,-512,325
6317,-3.930175781,-2.810791016,-4.913818359,464,-478,330
6322,-3.932617188,-2.811035156,-4.914306641,486,-507,321
6327,-3.928466797,-2.809326172,-4.914306641,476,-499,328
6332,-3.932373047,-2.806884766,-4.914794922,462,-488,324
6337,-3.933837891,-2.811279297,-4.908935547,481,-481,335
6342,-3.934082031,-2.811523438,-4.924560547,489,-476,313
6347,-3.938964844,-2.806884766,-4.917236328,491,-497,339
6352,-3.936767578,-2.809326172,-4.912597656,487,-488,332
6357,-3.929931641,-2.809082031,-4.920898438,495,-496,308
6362,-3.933105469,-2.808837891,-4.916992188,485,-494,362
6367,-3.934082031,-2.810302734,-4.911621094,481,-476,344
6372,-3.932128906,-2.808105469,-4.909667969,484,-523,337
6377,-3.935058594,-2.811523438,-4.911132813,497,-499,343
6382,-3.940673828,-2.809814453,-4.912109375,460,-487,325
6387,-3.932373047,-2.809814453,-4.9140625,468,-522,337
6392,-3.933349609,-2.810302734,-4.919189453,480,-505,341
6397,-3.935546875,-2.804931641,-4.913574219,498,-469,335
6402,-3.931152344,-2.805419922,-4.904296875,466,-480,330
6407,-3.933105469,-2.808837891,-4.915771484,457,-474,328
6412,-3.934570313,-2.808349609,-4.912841797,484,-484,347
6417,-3.934082031,-2.806152344,-4.920898438,465,-507,346
6423,-3.932373047,-2.808837891,-4.91796875,503,-495,343
6428,-3.932373047,-2.809326172,-4.917480469,499,-494,347
6433,-3.931884766,-2.806152344,-4.911865234,482,-514,336
6438,-3.933105469,-2.810302734,-4.915039063,457,-504,338
6443,-3.9375,-2.811035156,-4.924072266,478,-475,344
6448,-3.935058594,-2.808349609,-4.915771484,481,-512,338
6453,-3.933837891,-2.806396484,-4.921630859,455,-485,349
6458,-3.928466797,-2.812988281,-4.915039063,491,-482,365
6463,-3.934082031,-2.80859375,-4.920410156,477,-474,332
6468,-3.940185547,-2.808349609,-4.916015625,473,-492,373
6473,-3.931396484,-2.809082031,-4.9140625,462,-483,333
6478,-3.935791016,-2.806152344,-4.910644531,492,-498,327
6483,-3.9375,-2.807861328,-4.916259766,485,-506,331
6488,-3.9296875,-2.810302734,-4.917236328,475,-502,328
6493,-3.930908203,-2.80859375,-4.924072266,462,-505,353
6498,-3.930664063,-2.812255859,-4.917236328,471,-483,322
6503,-3.934326172,-2.810058594,-4.911621094,483,-489,339
6508,-3.936523438,-2.808105469,-4.917480469,508,-464,342
6513,-3.936035156,-2.808837891,-4.916748047,495,-501,340
6518,-3.937255859,-2.810058594,-4.917480469,483,-474,351
6523,-3.937255859,-2.810302734,-4.920654297,485,-488,342
6528,-3.929443359,-2.809082031,-4.909912109,492,-498,338
6533,-3.936035156,-2.807373047,-4.916259766,483,-475,310
6538,-3.933105469,-2.813720703,-4.919433594,482,-531,336
6543,-3.930419922,-2.805419922,-4.909179688,473,-491,336
6548,-3.934082031,-2.807128906,-4.912353516,475,-472,349
6553,-3.932861328,-2.805908203,-4.923095703,482,-506,357
6559,-3.931640625,-2.809814453,-4.91796875,496,-489,348
6564,-3.934326172,-2.807861328,-4.921630859,489,-487,353
6569,-3.934082031,-2.805908203,-4.925537109,473,-471,348
6574,-3.934082031,-2.810302734,-4.921386719,492,-471,336
6579,-3.938232422,-2.806152344,-4.9140625,470,-492,342
6584,-3.934814453,-2.808105469,-4.909912109,468,-500,349
6589,-3.929931641,-2.806884766,-4.918945313,457,-490,305
6594,-3.934814453,-2.811523438,-4.923339844,493,-501,347
6599,-3.929931641,-2.807617188,-4.916259766,473,-508,329
6604,-3.931884766,-2.813476563,-4.917724609,463,-514,326
6609,-3.934570313,-2.812011719,-4.916992188,489,-503,366
6614,-3.931884766,-2.8046875,-4.910888672,469,-475,330
6619,-3.930175781,-2.806152344,-4.917480469,474,-483,318
6624,-3.93359375,-2.810302734,-4.915771484,498,-506,337
6629,-3.930175781,-2.805419922,-4.915283203,474,-485,339
6634,-3.93359375,-2.804443359,-4.911376953,468,-466,325
6639,-3.933837891,-2.809082031,-4.919677734,494,-471,333
6644,-3.932617188,-2.809814453,-4.920410156,474,-481,317
6649,-3.932861328,-2.805175781,-4.920654297,486,-504,340
6654,-3.931396484,-2.810546875,-4.913818359,481,-498,339
6659,-3.929931641,-2.808349609,-4.919921875,487,-511,338
6664,-3.934814453,-2.806884766,-4.916503906,474,-499,357
6669,-3.933349609,-2.809326172,-4.913330078,484,-491,363
6674,-3.932373047,-2.806884766,-4.919677734,490,-482,334
6679,-3.934570313,-2.807617188,-4.919189453,473,-463,345
6684,-3.937011719,-2.80859375,-4.912109375,473,-492,338
6689,-3.924316406,-2.809082031,-4.920654297,480,-512,328
6695,-3.938720703,-2.808837891,-4.920654297,472,-467,312
6700,-3.932617188,-2.808837891,-4.917724609,464,-463,342
6705,-3.92578125,-2.810302734,-4.922851563,471,-501,346
6710,-3.936035156,-2.806884766,-4.918457031,494,-512,353
6715,-3.935546875,-2.805908203,-4.916992188,475,-495,333
6720,-3.928955078,-2.810302734,-4.914550781,473,-498,342
6725,-3.934814453,-2.809570313,-4.916992188,485,-512,333
6730,-3.931152344,-2.808837891,-4.913574219,493,-494,323
6735,-3.932617188,-2.810791016,-4.920166016,488,-482,346
6740,-3.935791016,-2.808105469,-4.920654297,475,-466,299
6745,-3.931884766,-2.808837891,-4.914550781,472,-462,327
6750,-3.929931641,-2.806152344,-4.916259766,473,-478,341
6755,-3.931152344,-2.807128906,-4.908935547,478,-487,329
6760,-3.932617188,-2.810791016,-4.918945313,492,-513,329
6765,-3.932128906,-2.809326172,-4.918701172,471,-488,332
6770,-3.934326172,-2.809082031,-4.9140625,456,-518,348
6775,-3.927978516,-2.808837891,-4.916503906,476,-494,332
6780,-3.935546875,-2.806884766,-4.919921875,476,-498,369
6785,-3.930419922,-2.809326172,-4.922851563,470,-491,326
6790,-3.928710938,-2.809326172,-4.911865234,499,-503,326
6795,-3.927734375,-2.806640625,-4.912841797,486,-454,333
6800,-3.935302734,-2.811035156,-4.919189453,469,-458,308
6805,-3.930175781,-2.807617188,-4.91796875,494,-487,332
6810,-3.938964844,-2.811035156,-4.918212891,472,-493,323
6815,-3.937744141,-2.810058594,-4.924072266,474,-507,345
6820,-3.930175781,-2.810058594,-4.923095703,488,-498,312
6825,-3.93359375,-2.810546875,-4.919677734,462,-498,326
6831,-3.935058594,-2.807861328,-4.908447266,479,-502,329
6836,-3.929199219,-2.802246094,-4.916992188,486,-504,346
6841,-3.933837891,-2.807373047,-4.918945313,489,-496,340
6846,-3.931396484,-2.806396484,-4.915527344,474,-477,331
6851,-3.935546875,-2.808105469,-4.915039063,460,-497,325
6856,-3.930908203,-2.807861328,-4.912597656,479,-487,336
6861,-3.933349609,-2.810302734,-4.915527344,478,-497,322
6866,-3.934814453,-2.810546875,-4.913574219,476,-472,337
6871,-3.932861328,-2.809082031,-4.918457031,471,-515,331
6876,-3.928222656,-2.811523438,-4.918457031,487,-516,334
6881,-3.938232422,-2.805908203,-4.917480469,500,-488,336
6886,-3.936767578,-2.811523438,-4.918945313,470,-504,324
6891,-3.931640625,-2.806152344,-4.917236328,496,-497,346
6896,-3.931884766,-2.808105469,-4.917236328,467,-499,335
6901,-3.931152344,-2.806640625,-4.913330078,473,-483,333
6906,-3.933105469,-2.809570313,-4.911376953,482,-476,346
6911,-3.938476563,-2.807861328,-4.915527344,475,-513,312
6916,-3.935791016,-2.807128906,-4.908203125,478,-474,318
6921,-3.933349609,-2.810791016,-4.918457031,471,-496,352
6926,-3.931152344,-2.805175781,-4.925537109,489,-481,327
6931,-3.929931641,-2.808105469,-4.911132813,484,-503,340
6936,-3.929199219,-2.811035156,-4.912109375,469,-510,350
6941,-3.931640625,-2.80859375,-4.913330078,470,-491,331
6946,-3.9375,-2.806640625,-4.915039063,463,-495,318
6951,-3.930908203,-2.810302734,-4.922607422,477,-499,346
6956,-3.930664063,-2.812988281,-4.917724609,482,-487,316
6961,-3.931396484,-2.807128906,-4.921630859,474,-494,352
6967,-3.930664063,-2.808837891,-4.915527344,474,-483,337
6972,-3.931884766,-2.8125,-4.919921875,484,-489,344
6977,-3.934326172,-2.809326172,-4.917724609,492,-522,336
6982,-3.933837891,-2.806640625,-4.913330078,477,-492,333
6987,-3.938232422,-2.813964844,-4.919677734,498,-487,331
6992,-3.931884766,-2.811035156,-4.918457031,502,-484,332
6997,-3.931884766,-2.808837891,-4.920166016,469,-480,350
7002,-3.933105469,-2.808349609,-4.920166016,463,-495,341
7007,-3.931884766,-2.809326172,-4.918457031,500,-479,329
7012,-3.936279297,-2.804199219,-4.916748047,511,-509,336
7017,-3.935791016,-2.807617188,-4.918701172,485,-479,339
7022,-3.927734375,-2.807128906,-4.910888672,489,-496,316
7027,-3.93359375,-2.803466797,-4.918945313,481,-501,342
7032,-3.932617188,-2.803955078,-4.915283203,484,-512,356
7037,-3.9296875,-2.805908203,-4.918212891,499,-489,340
7042,-3.935058594,-2.806152344,-4.910644531,477,-473,332
7047,-3.936279297,-2.802734375,-4.913818359,470,-482,315
7052,-3.932617188,-2.809326172,-4.915283203,470,-477,328
7057,-3.936523438,-2.812988281,-4.913574219,486,-483,351
7062,-3.930664063,-2.805908203,-4.916992188,469,-486,322
7067,-3.930664063,-2.805908203,-4.921630859,461,-505,327
7072,-3.932861328,-2.815185547,-4.912597656,475,-504,355
7077,-3.931640625,-2.805664063,-4.913574219,483,-510,353
7082,-3.932617188,-2.809814453,-4.915527344,484,-509,366
7087,-3.937255859,-2.807128906,-4.9140625,498,-518,350
7092,-3.930664063,-2.807128906,-4.919677734,466,-466,328
7097,-3.93359375,-2.806396484,-4.919433594,493,-497,352
7103,-3.934326172,-2.807617188,-4.919433594,469,-468,328
7108,-3.930908203,-2.809814453,-4.913574219,510,-477,348
7113,-3.930908203,-2.806396484,-4.917480469,460,-476,322
7118,-3.937744141,-2.813232422,-4.910888672,465,-482,323
7123,-3.934326172,-2.80859375,-4.914306641,470,-470,328
7128,-3.932373047,-2.806884766,-4.921630859,478,-517,321
7133,-3.931396484,-2.814941406,-4.919921875,482,-517,347
7138,-3.928222656,-2.809082031,-4.917480469,489,-501,334
7143,-3.933105469,-2.806396484,-4.916992188,475,-516,331
7148,-3.932861328,-2.807373047,-4.911621094,458,-489,339
7153,-3.933837891,-2.809570313,-4.918701172,497,-482,339
7158,-3.935058594,-2.806396484,-4.917236328,472,-461,353
7163,-3.930175781,-2.809326172,-4.919921875,498,-474,327
7168,-3.929931641,-2.808105469,-4.91796875,485,-502,342
7173,-3.930419922,-2.809570313,-4.914306641,477,-497,329
7178,-3.933837891,-2.806152344,-4.917236328,489,-502,328
7183,-3.928466797,-2.809082031,-4.912109375,489,-505,338
7188,-3.939453125,-2.813964844,-4.919921875,484,-517,357
7193,-3.93359375,-2.807861328,-4.908935547,491,-506,332
7198,-3.932128906,-2.803466797,-4.918701172,478,-506,353
7203,-3.93359375,-2.806640625,-4.921142578,476,-480,366
7208,-3.929443359,-2.810302734,-4.920654297,488,-478,332
7213,-3.938232422,-2.809326172,-4.912109375,480,-475,314
7218,-3.932617188,-2.809570313,-4.914306641,444,-449,327
7223,-3.927490234,-2.808105469,-4.915527344,486,-470,333
7228,-3.932617188,-2.808105469,-4.919677734,478,-492,337
7233,-3.931884766,-2.808349609,-4.920166016,483,-497,368
7239,-3.930419922,-2.812744141,-4.916992188,485,-513,345
7244,-3.931640625,-2.809082031,-4.922851563,488,-505,354
7249,-3.935791016,-2.810546875,-4.916503906,467,-493,328
7254,-3.933837891,-2.8125,-4.911132813,474,-499,346
7259,-3.936523438,-2.805419922,-4.917724609,505,-504,346
7264,-3.937744141,-2.808349609,-4.916748047,460,-484,324
7269,-3.929443359,-2.812255859,-4.915771484,494,-477,329
7274,-3.928710938,-2.810302734,-4.918701172,484,-480,320
7279,-3.929931641,-2.809570313,-4.912597656,481,-483,350
7284,-3.936035156,-2.809814453,-4.917480469,472,-510,338
7289,-3.935302734,-2.805419922,-4.923095703,482,-508,340
7294,-3.932373047,-2.810058594,-4.918701172,481,-488,329
7299,-3.931640625,-2.807128906,-4.919433594,465,-500,336
7304,-3.934326172,-2.810058594,-4.923583984,466,-506,341
7309,-3.934326172,-2.80859375,-4.914306641,499,-481,336
7314,-3.936035156,-2.809082031,-4.913818359,483,-481,334
7319,-3.933349609,-2.807128906,-4.914794922,458,-494,359
7324,-3.935791016,-2.809326172,-4.920166016,475,-493,325
7329,-3.935058594,-2.807617188,-4.924560547,482,-491,346
7334,-3.932373047,-2.814697266,-4.923339844,495,-474,345
7339,-3.933105469,-2.808349609,-4.915283203,491,-489,329
7344,-3.932373047,-2.804931641,-4.914306641,477,-478,331
7349,-3.932617188,-2.806152344,-4.914306641,474,-500,345
7354,-3.93359375,-2.808349609,-4.918701172,483,-471,330
7359,-3.935791016,-2.807861328,-4.916748047,480,-491,335
7364,-3.931640625,-2.806640625,-4.914794922,496,-488,317
7369,-3.929931641,-2.808837891,-4.914306641,482,-492,341
7375,-3.933837891,-2.807373047,-4.924316406,490,-491,335
7380,-3.93359375,-2.806640625,-4.920654297,490,-490,353
7385,-3.932128906,-2.806152344,-4.922119141,488,-502,314
7390,-3.936767578,-2.809570313,-4.916748047,489,-500,330
7395,-3.932128906,-2.806884766,-4.913330078,485,-479,318
7400,-3.931884766,-2.809326172,-4.919433594,474,-492,340
7405,-3.934082031,-2.811767578,-4.921142578,492,-491,348
7410,-3.930908203,-2.806152344,-4.914794922,472,-471,324
7415,-3.931640625,-2.810546875,-4.920410156,486,-502,352
7420,-3.936767578,-2.811035156,-4.923095703,474,-481,323
7425,-3.937988281,-2.808105469,-4.917236328,472,-511,339
7430,-3.936523438,-2.810546875,-4.916503906,483,-482,345
7435,-3.930419922,-2.811035156,-4.915039063,495,-483,321
7440,-3.929931641,-2.808349609,-4.915283203,494,-483,334
7445,-3.930175781,-2.805664063,-4.916259766,469,-495,325
7450,-3.932128906,-2.809326172,-4.914550781,463,-484,342
7455,-3.933105469,-2.808837891,-4.914306641,475,-468,342
7460,-3.936035156,-2.809814453,-4.916259766,481,-491,340
7465,-3.931884766,-2.806396484,-4.916748047,477,-488,306
7470,-3.932861328,-2.811523438,-4.916259766,487,-476,335
7475,-3.933349609,-2.809082031,-4.927246094,489,-512,334
7480,-3.935546875,-2.808837891,-4.913085938,494,-489,327
7485,-3.930664063,-2.807373047,-4.912109375,497,-481,326
7490,-3.934570313,-2.809814453,-4.918945313,481,-485,323
7495,-3.937255859,-2.807617188,-4.921142578,459,-470,305
7500,-3.926269531,-2.805908203,-4.920898438,481,-481,331
7505,-3.932373047,-2.808837891,-4.915283203,495,-482,343
7511,-3.932617188,-2.808349609,-4.916259766,478,-487,313
7516,-3.933837891,-2.80859375,-4.912353516,477,-473,328
7521,-3.934814453,-2.810302734,-4.919921875,461,-493,328
7526,-3.935058594,-2.807617188,-4.911865234,483,-489,373
7531,-3.932128906,-2.803466797,-4.918701172,464,-488,330
7536,-3.929931641,-2.805419922,-4.923583984,481,-492,336
7541,-3.93359375,-2.809326172,-4.912353516,486,-484,334
7546,-3.933349609,-2.803222656,-4.920410156,471,-481,330
7551,-3.933837891,-2.810058594,-4.913330078,480,-490,337
7556,-3.934570313,-2.808105469,-4.91796875,488,-489,349
7561,-3.934570313,-2.805419922,-4.91796875,492,-493,326
7566,-3.935791016,-2.808105469,-4.919433594,485,-502,352
7571,-3.931152344,-2.805175781,-4.911132813,497,-493,336
7576,-3.931396484,-2.809814453,-4.915771484,453,-488,344
7581,-3.935302734,-2.8125,-4.912841797,461,-475,322
7586,-3.936767578,-2.802978516,-4.915039063,484,-505,342
7591,-3.932861328,-2.810058594,-4.916015625,480,-497,327
7596,-3.93359375,-2.810546875,-4.920410156,486,-472,331
7601,-3.926269531,-2.808349609,-4.920166016,500,-492,331
7606,-3.930908203,-2.806152344,-4.919433594,477,-462,356
7611,-3.933349609,-2.808349609,-4.922119141,477,-478,314
7616,-3.934326172,-2.809570313,-4.923583984,483,-486,341
7621,-3.937011719,-2.810546875,-4.916748047,486,-486,343
7626,-3.933105469,-2.808837891,-4.914794922,469,-493,308
7631,-3.932128906,-2.804443359,-4.915039063,486,-505,352
7636,-3.930664063,-2.812744141,-4.917236328,482,-485,331
7641,-3.931884766,-2.810058594,-4.921142578,470,-487,337
7647,-3.930908203,-2.802490234,-4.912353516,488,-505,322
7652,-3.930908203,-2.807373047,-4.912841797,501,-487,344
7657,-3.936523438,-2.807861328,-4.916259766,491,-496,321
7662,-3.936767578,-2.804199219,-4.91796875,472,-489,339
7667,-3.932861328,-2.812255859,-4.914550781,492,-504,348
7672,-3.933349609,-2.809814453,-4.919921875,476,-484,329
7677,-3.932373047,-2.806640625,-4.917480469,489,-489,338
7682,-3.931640625,-2.810058594,-4.919433594,476,-495,335
7687,-3.933349609,-2.811035156,-4.916259766,489,-482,325
7692,-3.929931641,-2.803466797,-4.914550781,468,-495,336
7697,-3.932373047,-2.806152344,-4.918945313,479,-489,321
7702,-3.931884766,-2.810302734,-4.918457031,483,-490,342
7707,-3.932617188,-2.811035156,-4.918212891,483,-507,359
7712,-3.936279297,-2.803466797,-4.909423828,485,-505,350
7717,-3.934082031,-2.809082031,-4.919921875,488,-497,346
7722,-3.936035156,-2.806640625,-4.919433594,478,-468,344
7727,-3.932617188,-2.805419922,-4.915039063,477,-488,346
7732,-3.929199219,-2.812744141,-4.915527344,488,-496,320
7737,-3.931152344,-2.808349609,-4.918701172,467,-506,345
7742,-3.933349609,-2.809082031,-4.913085938,480,-501,336
7747,-3.930175781,-2.808837891,-4.919189453,487,-488,340
7752,-3.931396484,-2.809570313,-4.916015625,485,-470,325
7757,-3.932861328,-2.805908203,-4.918457031,460,-466,352
7762,-3.937255859,-2.809814453,-4.920654297,487,-490,328
7767,-3.930908203,-2.809326172,-4.921630859,475,-471,331
7772,-3.930175781,-2.805908203,-4.920654297,464,-489,337
7777,-3.933837891,-2.805175781,-4.915283203,458,-487,354
7783,-3.931640625,-2.810058594,-4.920166016,481,-470,323
7788,-3.932617188,-2.809326172,-4.917236328,493,-482,330
7793,-3.938476563,-2.80859375,-4.918945313,462,-472,332
7798,-3.934814453,-2.8046875,-4.920898438,499,-490,336
7803,-3.929931641,-2.811523438,-4.923828125,473,-494,336
7808,-3.932861328,-2.809570313,-4.920166016,471,-481,340
7813,-3.935546875,-2.810058594,-4.916015625,483,-497,341
7818,-3.930419922,-2.808105469,-4.926025391,486,-501,343
7823,-3.937011719,-2.806396484,-4.918701172,474,-492,330
7828,-3.938232422,-2.806152344,-4.916992188,497,-492,325
7833,-3.930664063,-2.808105469,-4.913085938,477,-483,332
7838,-3.9296875,-2.8046875,-4.923583984,479,-489,330
7843,-3.934326172,-2.810058594,-4.920654297,476,-482,343
7848,-3.929931641,-2.808105469,-4.918457031,491,-490,353
7853,-3.936279297,-2.813476563,-4.915283203,487,-500,334
7858,-3.931152344,-2.809082031,-4.912109375,459,-501,320
7863,-3.932861328,-2.807617188,-4.914550781,480,-459,335
7868,-3.935058594,-2.807861328,-4.917236328,488,-477,328
7873,-3.935058594,-2.803955078,-4.916748047,493,-495,342
7878,-3.931396484,-2.808349609,-4.920654297,475,-478,302
7883,-3.937255859,-2.811279297,-4.911621094,483,-518,339
7888,-3.928222656,-2.809326172,-4.913085938,474,-510,334
7893,-3.936523438,-2.804931641,-4.917480469,480,-476,340
7898,-3.935791016,-2.810791016,-4.917724609,486,-505,328
7903,-3.931884766,-2.807861328,-4.911376953,487,-491,351
7908,-3.935058594,-2.807373047,-4.915039063,483,-464,353
7913,-3.93359375,-2.809570313,-4.913818359,478,-508,324
7919,-3.931396484,-2.807861328,-4.918212891,482,-482,342
7924,-3.936279297,-2.807617188,-4.914794922,472,-497,327
7929,-3.934570313,-2.809570313,-4.914550781,468,-477,330
7934,-3.929443359,-2.814208984,-4.920410156,486,-517,326
7939,-3.933837891,-2.809082031,-4.921875,500,-479,334
7944,-3.936279297,-2.811523438,-4.916748047,472,-496,332
7949,-3.932128906,-2.809326172,-4.9140625,477,-479,314
7954,-3.936523438,-2.811279297,-4.915527344,478,-480,347
7959,-3.934570313,-2.812011719,-4.918457031,473,-478,358
7964,-3.934814453,-2.812744141,-4.916992188,475,-490,333
7969,-3.935058594,-2.810546875,-4.920654297,478,-491,348
7974,-3.936767578,-2.809326172,-4.914550781,460,-513,357
7979,-3.928955078,-2.808349609,-4.916992188,475,-489,335
7984,-3.9296875,-2.813964844,-4.919433594,469,-503,343
7989,-3.939697266,-2.807128906,-4.909912109,465,-491,348
7994,-3.933349609,-2.804931641,-4.913330078,462,-479,331
7999,-3.928955078,-2.814453125,-4.913085938,505,-471,326
8004,-3.934570313,-2.808349609,-4.916259766,486,-483,358
8009,-3.931152344,-2.808105469,-4.919433594,456,-482,351
8014,-3.937988281,-2.809326172,-4.916992188,474,-464,338
8019,-3.936767578,-2.811523438,-4.915527344,486,-482,331
8024,-3.9375,-2.810791016,-4.917724609,477,-491,315
8029,-3.936767578,-2.806640625,-4.929443359,472,-497,333
8034,-3.932373047,-2.810546875,-4.918701172,495,-494,316
8039,-3.9296875,-2.809082031,-4.917480469,461,-491,346
8044,-3.932617188,-2.809570313,-4.921386719,475,-489,341
8049,-3.927490234,-2.80859375,-4.917236328,485,-495,353
8055,-3.932617188,-2.806640625,-4.922363281,461,-494,342
8060,-3.935791016,-2.806884766,-4.913574219,474,-482,338
8065,-3.933105469,-2.810058594,-4.918701172,495,-502,336
8070,-3.930908203,-2.809082031,-4.913818359,485,-502,339
8075,-3.935058594,-2.809326172,-4.914550781,466,-477,340
8080,-3.931396484,-2.809570313,-4.917480469,488,-495,311
8085,-3.929931641,-2.811035156,-4.917724609,473,-526,342
8090,-3.936279297,-2.806640625,-4.919189453,469,-492,340
8095,-3.936035156,-2.806884766,-4.911132813,457,-494,335
8100,-3.9296875,-2.812255859,-4.922119141,472,-489,329
8105,-3.930175781,-2.807617188,-4.916503906,476,-512,305
8110,-3.931884766,-2.803710938,-4.915283203,462,-482,351
8115,-3.930664063,-2.807617188,-4.917236328,490,-504,333
8120,-3.931640625,-2.811035156,-4.916992188,485,-486,347
8125,-3.935302734,-2.809082031,-4.915527344,486,-480,317
8130,-3.929931641,-2.810546875,-4.915283203,491,-503,360
8135,-3.933349609,-2.810791016,-4.914550781,480,-493,346
8140,-3.936279297,-2.805908203,-4.922363281,481,-461,348
8145,-3.933349609,-2.808105469,-4.914306641,490,-464,334
8150,-3.934570313,-2.809326172,-4.913085938,490,-478,329
8155,-3.935058594,-2.806640625,-4.9140625,460,-501,314
8160,-3.931152344,-2.80859375,-4.911132813,495,-515,313
8165,-3.931884766,-2.806640625,-4.916748047,489,-502,334
8170,-3.930908203,-2.809570313,-4.915527344,497,-490,324
8175,-3.931152344,-2.812255859,-4.912353516,493,-476,335
8180,-3.930175781,-2.807617188,-4.919189453,485,-491,358
8185,-3.936035156,-2.810058594,-4.919921875,468,-476,344
8191,-3.937255859,-2.806152344,-4.923583984,471,-476,334
8196,-3.9296875,-2.811035156,-4.905273438,472,-468,332
8201,-3.932617188,-2.811523438,-4.916992188,476,-483,325
8206,-3.936035156,-2.810546875,-4.920898438,490,-478,324
8211,-3.932617188,-2.808105469,-4.914550781,464,-480,335
8216,-3.9375,-2.8125,-4.911132813,487,-478,301
8221,-3.931640625,-2.809570313,-4.917236328,476,-496,335
8226,-3.931152344,-2.806396484,-4.918945313,453,-488,323
8231,-3.934082031,-2.812744141,-4.916259766,506,-484,352
8236,-3.930419922,-2.805175781,-4.920898438,481,-503,344
8241,-3.937255859,-2.808349609,-4.924316406,494,-484,353
8246,-3.934082031,-2.809326172,-4.912109375,487,-473,356
8251,-3.930175781,-2.808105469,-4.918457031,480,-469,335
8256,-3.938232422,-2.807128906,-4.922119141,503,-462,322
8261,-3.9375,-2.807617188,-4.919921875,466,-479,325
8266,-3.934570313,-2.808837891,-4.92578125,493,-493,329
8271,-3.931640625,-2.810302734,-4.918701172,487,-466,334
8276,-3.929199219,-2.811523438,-4.918212891,466,-507,352
8281,-3.927246094,-2.807128906,-4.920410156,470,-507,336
8286,-3.9375,-2.809326172,-4.915283203,496,-507,374
8291,-3.937255859,-2.805419922,-4.911621094,481,-513,328
8296,-3.932617188,-2.810302734,-4.919677734,480,-480,341
8301,-3.936035156,-2.813232422,-4.918701172,477,-499,339
8306,-3.931396484,-2.803710938,-4.907714844,462,-456,310
8311,-3.926757813,-2.809814453,-4.915283203,498,-490,334
8316,-3.937011719,-2.812744141,-4.920898438,488,-474,338
8321,-3.932373047,-2.808105469,-4.916259766,470,-504,333
8327,-3.935791016,-2.808837891,-4.911621094,475,-501,330
8332,-3.934814453,-2.807861328,-4.91015625,484,-499,339
8337,-3.930664063,-2.810302734,-4.9140625,473,-505,346
8342,-3.929931641,-2.808837891,-4.918212891,494,-496,360
8347,-3.931884766,-2.811035156,-4.914550781,520,-492,336
8352,-3.93359375,-2.805908203,-4.914794922,481,-476,332
8357,-3.931640625,-2.808349609,-4.921142578,499,-467,328
8362,-3.938232422,-2.807861328,-4.917236328,464,-466,330
8367,-3.932373047,-2.809082031,-4.911132813,500,-482,317
8372,-3.932128906,-2.805908203,-4.919189453,470,-504,336
8377,-3.936279297,-2.807128906,-4.913818359,503,-494,324
8382,-3.933837891,-2.811035156,-4.917480469,462,-488,329
8387,-3.933105469,-2.803466797,-4.918945313,474,-494,376
8392,-3.939208984,-2.810302734,-4.916748047,482,-513,322
8397,-3.930419922,-2.807617188,-4.926269531,490,-518,317
8402,-3.931884766,-2.807617188,-4.913818359,499,-473,339
8407,-3.931640625,-2.806640625,-4.916259766,467,-480,338
8412,-3.9296875,-2.810546875,-4.915039063,490,-473,322
8417,-3.933349609,-2.809326172,-4.917724609,482,-490,331
8422,-3.940429688,-2.809326172,-4.920410156,470,-456,347
8427,-3.935302734,-2.810302734,-4.918457031,477,-489,329
8432,-3.936279297,-2.808837891,-4.919433594,498,-487,343
8437,-3.937011719,-2.810546875,-4.912109375,468,-515,336
8442,-3.932861328,-2.809326172,-4.911865234,498,-489,324
8447,-3.935302734,-2.812011719,-4.921875,473,-529,321
8452,-3.931884766,-2.80859375,-4.922363281,468,-490,318
8457,-3.928710938,-2.805419922,-4.919433594,477,-513,339
8463,-3.934570313,-2.807128906,-4.920166016,477,-500,330
8468,-3.930175781,-2.812988281,-4.918457031,483,-493,346
8473,-3.937255859,-2.806884766,-4.920410156,475,-483,337
8478,-3.933349609,-2.8125,-4.918212891,481,-495,335
8483,-3.931640625,-2.810302734,-4.914550781,486,-491,351
8488,-3.934814453,-2.806152344,-4.916015625,475,-484,350
8493,-3.933105469,-2.805175781,-4.918701172,484,-478,366
8498,-3.937255859,-2.811523438,-4.916992188,491,-505,352
8503,-3.934570313,-2.803955078,-4.91796875,476,-487,337
8508,-3.934326172,-2.807128906,-4.915283203,458,-484,325
8513,-3.931152344,-2.806640625,-4.918212891,468,-494,330
8518,-3.931884766,-2.804443359,-4.916503906,472,-488,321
8523,-3.930175781,-2.807373047,-4.916259766,477,-495,363
8528,-3.932861328,-2.810546875,-4.919433594,484,-510,359
8533,-3.934814453,-2.807617188,-4.917480469,468,-524,338
8538,-3.935546875,-2.805419922,-4.913330078,479,-486,334
8543,-3.927978516,-2.809570313,-4.918212891,492,-509,345
8548,-3.931396484,-2.811035156,-4.919189453,469,-485,339
8553,-3.937988281,-2.807617188,-4.9140625,489,-458,328
8558,-3.934326172,-2.807128906,-4.920898438,465,-491,348
8563,-3.935546875,-2.809570313,-4.919677734,502,-497,331
8568,-3.930664063,-2.806640625,-4.908935547,471,-521,324
8573,-3.93359375,-2.811767578,-4.920166016,455,-513,357
8578,-3.931640625,-2.810791016,-4.920166016,463,-494,324
8583,-3.933105469,-2.811035156,-4.915527344,478,-504,334
8588,-3.938476563,-2.809082031,-4.915283203,489,-515,347
8593,-3.932861328,-2.808349609,-4.918457031,467,-513,335
8599,-3.932373047,-2.809814453,-4.916503906,487,-500,327
8604,-3.934082031,-2.806640625,-4.918701172,478,-476,334
8609,-3.935058594,-2.80859375,-4.916015625,491,-492,331
8614,-3.930175781,-2.806396484,-4.913818359,495,-480,331
8619,-3.937255859,-2.80859375,-4.924804688,480,-474,331
8624,-3.932861328,-2.804443359,-4.913818359,492,-492,320
8629,-3.933105469,-2.806640625,-4.919433594,478,-512,327
8634,-3.933837891,-2.8125,-4.920898438,497,-501,338
8639,-3.935546875,-2.804443359,-4.914550781,490,-521,307
8644,-3.927246094,-2.811767578,-4.915283203,491,-504,336
8649,-3.932861328,-2.808105469,-4.924316406,476,-495,337
8654,-3.932617188,-2.811523438,-4.911132813,487,-491,329
8659,-3.930664063,-2.808105469,-4.911865234,472,-458,355
8664,-3.936523438,-2.812988281,-4.91796875,487,-484,338
8669,-3.934570313,-2.806884766,-4.925048828,478,-482,359
8674,-3.934570313,-2.810058594,-4.922119141,481,-500,319
8679,-3.935791016,-2.8125,-4.919189453,464,-491,342
8684,-3.930419922,-2.80859375,-4.920410156,462,-498,339
8689,-3.931152344,-2.808349609,-4.925292969,477,-510,314
8694,-3.930419922,-2.811035156,-4.912841797,495,-510,336
8699,-3.932617188,-2.810302734,-4.918212891,477,-497,334
8704,-3.931152344,-2.808105469,-4.916992188,489,-501,329
8709,-3.936035156,-2.807373047,-4.919677734,500,-490,335
8714,-3.925537109,-2.806396484,-4.912353516,489,-497,325
8719,-3.934082031,-2.808349609,-4.911865234,491,-497,336
8724,-3.937255859,-2.80859375,-4.918457031,482,-466,348
8729,-3.932128906,-2.811523438,-4.918212891,511,-515,331
8735,-3.936279297,-2.805419922,-4.910644531,475,-498,333
8740,-3.938476563,-2.806884766,-4.918457031,441,-507,311
8745,-3.928955078,-2.810791016,-4.916015625,482,-516,339
8750,-3.929931641,-2.807373047,-4.913574219,467,-487,316
8755,-3.931152344,-2.812255859,-4.919189453,480,-509,315
8760,-3.929931641,-2.810791016,-4.916015625,465,-479,335
8765,-3.937988281,-2.810791016,-4.915283203,481,-493,343
8770,-3.932861328,-2.806152344,-4.918701172,480,-482,306
8775,-3.930908203,-2.807128906,-4.908447266,481,-471,352
8780,-3.929199219,-2.811279297,-4.921875,477,-471,329
8785,-3.932128906,-2.808105469,-4.913574219,505,-506,347
8790,-3.933105469,-2.805664063,-4.918701172,477,-485,313
8795,-3.935058594,-2.810058594,-4.915527344,471,-500,327
8800,-3.934570313,-2.80859375,-4.918212891,479,-481,339
8805,-3.931396484,-2.808105469,-4.91796875,477,-480,363
8810,-3.932373047,-2.809082031,-4.922119141,469,-499,349
8815,-3.931396484,-2.805419922,-4.916748047,512,-494,353
8820,-3.933837891,-2.802978516,-4.920898438,459,-504,326
8825,-3.933349609,-2.812255859,-4.916992188,485,-480,346
8830,-3.932128906,-2.809814453,-4.919433594,522,-496,346
8835,-3.929931641,-2.805175781,-4.913085938,471,-500,313
8840,-3.935546875,-2.808105469,-4.924804688,476,-522,353
8845,-3.927001953,-2.809326172,-4.915771484,474,-470,350
8850,-3.9296875,-2.806640625,-4.910644531,481,-485,350
8855,-3.93359375,-2.804931641,-4.912109375,485,-490,303
8860,-3.9375,-2.806640625,-4.913818359,492,-531,332
8865,-3.934082031,-2.810058594,-4.914794922,491,-489,345
8871,-3.934082031,-2.805908203,-4.916259766,481,-505,360
8876,-3.932128906,-2.805175781,-4.915283203,462,-507,331
8881,-3.928466797,-2.809082031,-4.915771484,476,-497,347
8886,-3.931152344,-2.812011719,-4.920166016,483,-479,331
8891,-3.935302734,-2.805908203,-4.914306641,484,-486,338
8896,-3.932128906,-2.810546875,-4.921386719,484,-490,342
8901,-3.932617188,-2.811767578,-4.910400391,479,-505,329
8906,-3.937255859,-2.810791016,-4.916259766,475,-512,324
8911,-3.933349609,-2.806640625,-4.907226563,460,-494,329
8916,-3.931396484,-2.810058594,-4.917724609,486,-502,344
8921,-3.929931641,-2.804931641,-4.919433594,484,-477,351
8926,-3.932861328,-2.805908203,-4.919189453,496,-511,344
8931,-3.934814453,-2.808105469,-4.922851563,473,-487,309
8936,-3.938476563,-2.810546875,-4.918212891,471,-494,337
8941,-3.933105469,-2.807861328,-4.91796875,488,-504,343
8946,-3.930664063,-2.806884766,-4.91796875,489,-485,334
8951,-3.931640625,-2.809570313,-4.9140625,488,-494,319
8956,-3.936279297,-2.810791016,-4.914550781,474,-500,337
8961,-3.930908203,-2.808837891,-4.917724609,473,-480,328
8966,-3.936035156,-2.80859375,-4.914306641,494,-493,350
8971,-3.933349609,-2.807617188,-4.914794922,474,-500,326
8976,-3.931152344,-2.811035156,-4.923583984,495,-486,349
8981,-3.934326172,-2.811279297,-4.919189453,494,-503,352
8986,-3.933837891,-2.806396484,-4.920898438,461,-497,338
8991,-3.930419922,-2.811279297,-4.921142578,482,-478,327
8996,-3.933105469,-2.810058594,-4.922363281,478,-513,338
9001,-3.931396484,-2.807128906,-4.925048828,476,-489,319
9007,-3.936035156,-2.806396484,-4.915527344,450,-505,339
9012,-3.931152344,-2.811279297,-4.920410156,472,-476,319
9017,-3.92578125,-2.813476563,-4.916015625,468,-499,337
9022,-3.9375,-2.808837891,-4.918701172,496,-490,318
9027,-3.933349609,-2.809570313,-4.916015625,491,-475,341
9032,-3.932128906,-2.808837891,-4.9140625,496,-469,334
9037,-3.939208984,-2.804443359,-4.919433594,481,-470,312
9042,-3.934570313,-2.807128906,-4.91015625,472,-493,340
9047,-3.929443359,-2.805664063,-4.916503906,471,-486,331
9052,-3.934570313,-2.807861328,-4.922119141,485,-497,347
9057,-3.935058594,-2.807861328,-4.916015625,486,-479,330
9062,-3.928222656,-2.811035156,-4.912597656,467,-511,329
9067,-3.932128906,-2.806640625,-4.912597656,475,-473,329
9072,-3.931884766,-2.80859375,-4.913085938,476,-495,338
9077,-3.932861328,-2.807861328,-4.917236328,462,-496,343
9082,-3.935546875,-2.809326172,-4.913818359,476,-485,346
9087,-3.935791016,-2.805175781,-4.923828125,449,-462,346
9092,-3.931396484,-2.808349609,-4.917236328,475,-486,341
9097,-3.935302734,-2.812011719,-4.916015625,498,-508,337
9102,-3.929443359,-2.810546875,-4.921630859,474,-493,325
9107,-3.928466797,-2.80859375,-4.916015625,458,-498,323
9112,-3.934814453,-2.810302734,-4.918945313,483,-483,328
9117,-3.933105469,-2.8046875,-4.916748047,487,-490,318
9122,-3.927490234,-2.805664063,-4.915527344,481,-500,326
9127,-3.931884766,-2.813476563,-4.922607422,496,-516,338
9132,-3.934082031,-2.807128906,-4.916259766,471,-479,337
9137,-3.929931641,-2.806396484,-4.916259766,473,-466,342
9143,-3.934326172,-2.811279297,-4.923095703,480,-460,336
9148,-3.931152344,-2.806152344,-4.916748047,483,-468,327
9153,-3.931396484,-2.808105469,-4.914550781,483,-492,341
9158,-3.936035156,-2.808837891,-4.916748047,463,-479,337
9163,-3.931152344,-2.808349609,-4.916748047,496,-467,341
9168,-3.933105469,-2.808105469,-4.909667969,493,-512,313
9173,-3.930664063,-2.813476563,-4.910888672,485,-504,313
9178,-3.933105469,-2.807373047,-4.921630859,458,-492,324
9183,-3.933837891,-2.807861328,-4.917480469,495,-485,343
9188,-3.932373047,-2.808105469,-4.908691406,475,-482,335
9193,-3.929931641,-2.808349609,-4.913085938,468,-493,313
9198,-3.932617188,-2.807617188,-4.911132813,474,-473,335
9203,-3.934082031,-2.811767578,-4.915771484,457,-485,334
9208,-3.932128906,-2.80859375,-4.916748047,480,-493,341
9213,-3.928222656,-2.810302734,-4.918701172,484,-495,331
9218,-3.935058594,-2.810058594,-4.911865234,457,-503,327
9223,-3.934570313,-2.803466797,-4.914794922,484,-478,361
9228,-3.933837891,-2.811767578,-4.912597656,492,-499,348
9233,-3.934082031,-2.811035156,-4.911621094,494,-500,330
9238,-3.933349609,-2.80859375,-4.918701172,483,-504,350
9243,-3.934814453,-2.811523438,-4.915527344,493,-473,308
9248,-3.935791016,-2.8046875,-4.915283203,462,-496,321
9253,-3.934570313,-2.806396484,-4.919677734,462,-473,320
9258,-3.926269531,-2.808105469,-4.921630859,465,-484,307
9263,-3.930175781,-2.806152344,-4.920898438,486,-505,331
9268,-3.934326172,-2.80859375,-4.921630859,466,-473,328
9273,-3.933837891,-2.807373047,-4.916992188,462,-497,328
9279,-3.933837891,-2.814208984,-4.912353516,482,-472,335
9284,-3.934814453,-2.804199219,-4.919677734,490,-491,352
9289,-3.930908203,-2.804931641,-4.916015625,462,-506,326
9294,-3.930908203,-2.809814453,-4.916259766,495,-482,324
9299,-3.935546875,-2.806396484,-4.9140625,481,-507,333
9304,-3.937255859,-2.806640625,-4.916015625,457,-494,370
9309,-3.929931641,-2.807617188,-4.915771484,483,-443,339
9314,-3.928222656,-2.809570313,-4.918212891,491,-483,330
9319,-3.930175781,-2.807861328,-4.918212891,497,-500,325
9324,-3.934814453,-2.805419922,-4.918701172,490,-480,336
9329,-3.93359375,-2.812744141,-4.918457031,482,-512,342
9334,-3.931640625,-2.806396484,-4.918701172,476,-489,336
9339,-3.940673828,-2.802001953,-4.917480469,460,-479,322
9344,-3.937011719,-2.810302734,-4.915771484,471,-486,341
9349,-3.932373047,-2.806884766,-4.915527344,475,-491,321
9354,-3.935058594,-2.808105469,-4.914306641,465,-492,311
9359,-3.932373047,-2.810791016,-4.920166016,483,-476,350
9364,-3.931884766,-2.812011719,-4.917480469,483,-462,342
9369,-3.934814453,-2.808837891,-4.917236328,486,-489,343
9374,-3.934326172,-2.809570313,-4.911132813,455,-484,336
9379,-3.9296875,-2.812011719,-4.912841797,495,-486,346
9384,-3.937011719,-2.807617188,-4.917724609,483,-486,341
9389,-3.935058594,-2.803955078,-4.916015625,464,-507,327
9394,-3.928710938,-2.812744141,-4.921142578,495,-481,327
9399,-3.935058594,-2.810058594,-4.913085938,471,-501,346
9404,-3.932373047,-2.803955078,-4.911376953,485,-479,306
9409,-3.932861328,-2.811279297,-4.918701172,481,-494,361
9415,-3.937255859,-2.810791016,-4.91796875,466,-501,333
9420,-3.935791016,-2.8046875,-4.916992188,473,-493,341
9425,-3.931884766,-2.810791016,-4.922607422,474,-474,359
9430,-3.93359375,-2.809082031,-4.920166016,499,-499,313
9435,-3.934570313,-2.809326172,-4.918701172,512,-488,315
9440,-3.934082031,-2.807373047,-4.918212891,484,-490,337
9445,-3.936523438,-2.811279297,-4.905517578,494,-506,346
9450,-3.935546875,-2.807617188,-4.914794922,470,-486,329
9455,-3.9296875,-2.810791016,-4.905517578,464,-487,341
9460,-3.934326172,-2.811767578,-4.917236328,491,-474,335
9465,-3.929931641,-2.805908203,-4.916015625,486,-484,363
9470,-3.933837891,-2.80859375,-4.916748047,483,-470,330
9475,-3.935058594,-2.811035156,-4.918701172,492,-506,311
9480,-3.932617188,-2.812011719,-4.91796875,475,-502,327
9485,-3.933105469,-2.809326172,-4.916015625,488,-508,353
9490,-3.934082031,-2.810058594,-4.916992188,490,-508,335
9495,-3.927978516,-2.808837891,-4.912841797,477,-527,333
9500,-3.934082031,-2.812011719,-4.916015625,470,-518,314
9505,-3.9375,-2.805664063,-4.9140625,465,-457,341
9510,-3.9296875,-2.806152344,-4.919433594,481,-492,332
9515,-3.935546875,-2.807861328,-4.913574219,465,-486,334
9520,-3.937744141,-2.805664063,-4.913818359,490,-489,329
9525,-3.932128906,-2.811279297,-4.919189453,487,-469,357
9530,-3.935546875,-2.812988281,-4.918945313,497,-503,326
9535,-3.933349609,-2.808105469,-4.915039063,493,-465,333
9540,-3.929931641,-2.809570313,-4.922607422,459,-521,350
9545,-3.938476563,-2.807617188,-4.917236328,494,-478,338
9551,-3.928955078,-2.811279297,-4.916992188,481,-512,315
9556,-3.933837891,-2.805908203,-4.913330078,462,-488,345
9561,-3.931152344,-2.811279297,-4.921875,475,-503,347
9566,-3.933105469,-2.807617188,-4.917724609,490,-487,324
9571,-3.931640625,-2.807128906,-4.917724609,469,-463,312
9576,-3.935302734,-2.808349609,-4.912109375,460,-478,344
9581,-3.938720703,-2.810058594,-4.923583984,475,-489,353
9586,-3.932617188,-2.808837891,-4.916748047,455,-475,337
9591,-3.932617188,-2.806396484,-4.912109375,464,-495,347
9596,-3.933105469,-2.805419922,-4.918945313,470,-487,329
9601,-3.935546875,-2.804931641,-4.916259766,475,-500,337
9606,-3.932373047,-2.809326172,-4.917236328,459,-508,353
9611,-3.933837891,-2.80859375,-4.909912109,489,-519,343
9616,-3.934082031,-2.808349609,-4.913330078,493,-477,337
9621,-3.932128906,-2.811035156,-4.914306641,485,-507,333
9626,-3.933105469,-2.809326172,-4.911376953,494,-451,324
9631,-3.930419922,-2.808837891,-4.914550781,479,-483,343
9636,-3.938720703,-2.807617188,-4.922119141,470,-474,338
9641,-3.933349609,-2.805419922,-4.917236328,493,-478,328
9646,-3.932128906,-2.812011719,-4.916503906,483,-475,331
9651,-3.931396484,-2.810302734,-4.913574219,478,-516,349
9656,-3.929443359,-2.805419922,-4.912353516,491,-492,340
9661,-3.931640625,-2.811523438,-4.917724609,501,-503,344
9666,-3.932617188,-2.805908203,-4.914550781,483,-499,318
9671,-3.931640625,-2.804199219,-4.913085938,463,-499,325
9676,-3.929931641,-2.808837891,-4.916503906,510,-488,340
9681,-3.928955078,-2.806884766,-4.917480469,494,-488,346
9687,-3.933105469,-2.807617188,-4.924072266,464,-497,341
9692,-3.933837891,-2.806396484,-4.921630859,478,-492,341
9697,-3.930419922,-2.807861328,-4.916503906,476,-486,312
9702,-3.937988281,-2.807128906,-4.916748047,471,-486,317
9707,-3.935302734,-2.806884766,-4.916992188,491,-474,339
9712,-3.929443359,-2.809082031,-4.916748047,489,-503,323
9717,-3.934082031,-2.807861328,-4.919433594,467,-501,322
9722,-3.934570313,-2.807128906,-4.910644531,474,-520,325
9727,-3.9296875,-2.813476563,-4.913330078,507,-504,335
9732,-3.931640625,-2.80859375,-4.917724609,496,-500,330
9737,-3.933105469,-2.808105469,-4.914550781,450,-478,329
9742,-3.936035156,-2.811279297,-4.914550781,492,-486,345
9747,-3.931884766,-2.80859375,-4.918212891,485,-483,355
9752,-3.929199219,-2.808349609,-4.914794922,459,-460,320
9757,-3.928955078,-2.809570313,-4.916992188,488,-481,347
9762,-3.930175781,-2.80859375,-4.918701172,475,-497,325
9767,-3.935058594,-2.807128906,-4.916992188,484,-497,342
9772,-3.935302734,-2.805664063,-4.916503906,476,-482,323
9777,-3.931396484,-2.809082031,-4.917724609,476,-497,333
9782,-3.931152344,-2.807128906,-4.916015625,487,-492,323
9787,-3.930175781,-2.811279297,-4.911865234,449,-504,332
9792,-3.928466797,-2.811523438,-4.916992188,509,-485,347
9797,-3.927978516,-2.808837891,-4.916503906,473,-479,322
9802,-3.933837891,-2.806396484,-4.913085938,483,-484,339
9807,-3.935546875,-2.809814453,-4.911621094,482,-498,320
9812,-3.931152344,-2.811035156,-4.920166016,450,-476,335
9817,-3.938720703,-2.811035156,-4.918945313,506,-481,342
9823,-3.935791016,-2.808349609,-4.912597656,470,-492,314
9828,-3.929443359,-2.80859375,-4.915039063,479,-508,312
9833,-3.934570313,-2.80859375,-4.923828125,456,-506,345
9838,-3.936279297,-2.812988281,-4.911621094,480,-485,323
9843,-3.9296875,-2.810791016,-4.917724609,480,-483,325
9848,-3.934326172,-2.806396484,-4.917480469,489,-497,337
9853,-3.932861328,-2.805175781,-4.918457031,487,-478,318
9858,-3.927978516,-2.808105469,-4.919677734,466,-495,335
9863,-3.933349609,-2.803710938,-4.922851563,502,-487,353
9868,-3.939208984,-2.807373047,-4.917480469,473,-472,318
9873,-3.928955078,-2.811767578,-4.926025391,487,-495,311
9878,-3.936523438,-2.807128906,-4.913330078,484,-508,338
9883,-3.93359375,-2.808105469,-4.917236328,490,-487,336
9888,-3.931640625,-2.808105469,-4.915283203,476,-496,329
9893,-3.934082031,-2.806640625,-4.915527344,484,-486,344
9898,-3.934326172,-2.809326172,-4.916992188,481,-494,350
9903,-3.932373047,-2.806884766,-4.917480469,466,-508,322
9908,-3.937255859,-2.805908203,-4.907226563,488,-490,337
9913,-3.931396484,-2.808837891,-4.913818359,487,-479,348
9918,-3.932128906,-2.802001953,-4.913085938,473,-489,341
9923,-3.938232422,-2.806640625,-4.915283203,490,-485,320
9928,-3.929443359,-2.808349609,-4.921142578,497,-480,328
9933,-3.934570313,-2.80859375,-4.919189453,474,-470,333
9938,-3.9375,-2.806396484,-4.917724609,462,-479,340
9943,-3.9296875,-2.810302734,-4.921386719,486,-502,324
9948,-3.934082031,-2.8046875,-4.915771484,467,-483,362
9953,-3.936035156,-2.809082031,-4.913818359,492,-487,371
9958,-3.927734375,-2.812255859,-4.916015625,466,-488,330
9964,-3.93359375,-2.807128906,-4.922607422,479,-489,323
9969,-3.936279297,-2.810546875,-4.912353516,488,-487,324
9974,-3.933105469,-2.806152344,-4.910888672,485,-478,332
9979,-3.934082031,-2.809570313,-4.913085938,491,-507,356
9984,-3.936035156,-2.80859375,-4.916503906,490,-476,343
9989,-3.931640625,-2.80859375,-4.914794922,476,-497,323
9994,-3.929443359,-2.8125,-4.912841797,487,-481,307
9999,-3.933349609,-2.807617188,-4.911865234,476,-506,338
10004,-3.935058594,-2.811523438,-4.915283203,474,-496,327
10009,-3.93359375,-2.813476563,-4.915283203,479,-498,330
10014,-3.932861328,-2.809814453,-4.918457031,468,-496,335
10019,-3.927978516,-2.806884766,-4.918945313,497,-494,338
10024,-3.9296875,-2.805908203,-4.922851563,468,-482,326
10029,-3.932373047,-2.805908203,-4.917724609,505,-499,325
10034,-3.931884766,-2.80859375,-4.920898438,472,-473,321
10039,-3.933837891,-2.809570313,-4.912353516,483,-483,338
10044,-3.934326172,-2.806640625,-4.924560547,511,-474,318
10049,-3.934570313,-2.804443359,-4.916992188,453,-506,323
10054,-3.934570313,-2.809326172,-4.915039063,498,-500,347
10059,-3.931152344,-2.810546875,-4.91796875,502,-499,337
10064,-3.936767578,-2.811767578,-4.919677734,488,-490,372
10069,-3.935546875,-2.806396484,-4.919189453,475,-484,331
10074,-3.9296875,-2.811523438,-4.917724609,471,-513,310
10079,-3.932373047,-2.806640625,-4.916992188,474,-509,341
10084,-3.932617188,-2.809326172,-4.916992188,470,-489,339
10089,-3.928710938,-2.808837891,-4.911132813,481,-484,357
10094,-3.926025391,-2.809814453,-4.915527344,486,-490,327
10100,-3.933349609,-2.808105469,-4.913574219,480,-492,345
10105,-3.933105469,-2.806640625,-4.915527344,493,-473,314
10110,-3.932373047,-2.812255859,-4.920654297,479,-475,323
10115,-3.935302734,-2.807861328,-4.918945313,481,-457,348
10120,-3.93359375,-2.80859375,-4.921386719,456,-500,324
10125,-3.934326172,-2.810546875,-4.914794922,467,-466,336
10130,-3.930419922,-2.807861328,-4.918457031,466,-504,328
10135,-3.932861328,-2.80859375,-4.908203125,473,-508,335
10140,-3.931396484,-2.806640625,-4.916503906,497,-502,320
10145,-3.930908203,-2.808837891,-4.918945313,475,-469,347
10150,-3.936767578,-2.806884766,-4.913818359,494,-499,326
10155,-3.936279297,-2.811767578,-4.920898438,481,-505,324
10160,-3.927246094,-2.811523438,-4.920898438,483,-503,340
10165,-3.936523438,-2.8046875,-4.915771484,470,-485,322
10170,-3.931396484,-2.804199219,-4.907958984,482,-468,310
10175,-3.932617188,-2.815917969,-4.919189453,492,-488,352
10180,-3.936035156,-2.810791016,-4.921386719,475,-499,321
10185,-3.937255859,-2.808837891,-4.919921875,474,-508,327
10190,-3.927978516,-2.809814453,-4.918212891,475,-492,337
10195,-3.934570313,-2.810791016,-4.919189453,494,-508,332
10200,-3.932373047,-2.80859375,-4.915771484,473,-481,353
10205,-3.932617188,-2.805908203,-4.911621094,461,-498,324
10210,-3.934570313,-2.807861328,-4.915771484,480,-503,328
10215,-3.932128906,-2.806640625,-4.91796875,478,-483,329
10220,-3.932128906,-2.807373047,-4.919433594,493,-478,342
10225,-3.932373047,-2.809814453,-4.923583984,478,-488,345
10230,-3.932861328,-2.806640625,-4.916259766,498,-495,335
10236,-3.936279297,-2.808837891,-4.919189453,474,-488,341
10241,-3.937255859,-2.809570313,-4.91796875,487,-494,328
10246,-3.935546875,-2.811279297,-4.921630859,491,-510,359
10251,-3.935546875,-2.807617188,-4.913330078,462,-506,356
10256,-3.931884766,-2.806396484,-4.91796875,487,-490,360
10261,-3.926513672,-2.808349609,-4.923583984,494,-484,312
10266,-3.935302734,-2.808349609,-4.916503906,483,-476,345
10271,-3.935791016,-2.808349609,-4.912597656,494,-485,326
10276,-3.929931641,-2.809326172,-4.921142578,485,-510,333
10281,-3.936279297,-2.813232422,-4.919677734,483,-483,335
10286,-3.937011719,-2.807861328,-4.918701172,496,-492,336
10291,-3.931152344,-2.810058594,-4.917724609,475,-503,342
10296,-3.934814453,-2.808349609,-4.915283203,482,-522,318
10301,-3.935546875,-2.810302734,-4.917724609,470,-508,349
10306,-3.931884766,-2.811035156,-4.912353516,469,-492,334
10311,-3.938964844,-2.809814453,-4.915039063,476,-492,317
10316,-3.933837891,-2.808105469,-4.911621094,474,-500,327
10321,-3.934082031,-2.811035156,-4.915527344,472,-498,325
10326,-3.930419922,-2.806640625,-4.913574219,474,-508,339
10331,-3.938476563,-2.806884766,-4.918701172,462,-474,328
10336,-3.927734375,-2.808837891,-4.917724609,482,-487,342
10341,-3.932128906,-2.807861328,-4.921875,492,-511,346
10346,-3.93359375,-2.80859375,-4.911621094,484,-475,347
10351,-3.929931641,-2.807861328,-4.916259766,469,-487,348
10356,-3.932861328,-2.809326172,-4.920654297,488,-503,330
10361,-3.929443359,-2.808349609,-4.917724609,479,-504,342
10366,-3.929199219,-2.806640625,-4.914550781,478,-477,337
10372,-3.933837891,-2.807861328,-4.914794922,459,-505,339
10377,-3.933105469,-2.808837891,-4.918945313,480,-515,341
10382,-3.932861328,-2.807617188,-4.914550781,493,-498,356
10387,-3.936279297,-2.811767578,-4.912109375,460,-496,348
10392,-3.931396484,-2.811279297,-4.914794922,485,-492,357
10397,-3.9296875,-2.812011719,-4.915771484,481,-487,321
10402,-3.933349609,-2.806640625,-4.921630859,472,-498,316
10407,-3.929931641,-2.805908203,-4.918701172,477,-497,323
10412,-3.935058594,-2.809082031,-4.915771484,492,-483,339
10417,-3.934570313,-2.807128906,-4.915527344,489,-465,337
10422,-3.932861328,-2.807617188,-4.913085938,482,-513,320
10427,-3.932617188,-2.810302734,-4.919433594,457,-523,330
10432,-3.929931641,-2.805664063,-4.913574219,496,-475,331
10437,-3.935302734,-2.808837891,-4.918945313,455,-501,339
10442,-3.931640625,-2.809570313,-4.921630859,482,-485,348
10447,-3.933349609,-2.810058594,-4.920654297,458,-499,325
10452,-3.93359375,-2.807128906,-4.916015625,469,-474,329
10457,-3.930664063,-2.807861328,-4.918212891,472,-464,334
10462,-3.929199219,-2.810302734,-4.917480469,497,-477,353
10467,-3.936035156,-2.810302734,-4.913330078,485,-467,341
10472,-3.93359375,-2.811279297,-4.916503906,491,-482,319
10477,-3.935546875,-2.811767578,-4.924072266,479,-509,342
10482,-3.935546875,-2.809570313,-4.909179688,484,-489,324
10487,-3.933105469,-2.806640625,-4.915771484,494,-487,352
10492,-3.934814453,-2.809570313,-4.917236328,503,-490,323
10497,-3.93359375,-2.805419922,-4.907226563,479,-492,339
10502,-3.929443359,-2.810302734,-4.91015625,455,-500,341
10508,-3.928710938,-2.812011719,-4.922363281,485,-483,362
10513,-3.932128906,-2.809082031,-4.923339844,476,-488,324
10518,-3.931884766,-2.805664063,-4.916259766,489,-468,347
10523,-3.932128906,-2.807617188,-4.913330078,495,-495,346
10528,-3.931640625,-2.807373047,-4.917236328,487,-498,338
10533,-3.933837891,-2.804199219,-4.923095703,478,-479,324
10538,-3.935302734,-2.809082031,-4.922607422,475,-475,313
10543,-3.934814453,-2.807861328,-4.919189453,480,-517,335
10548,-3.934326172,-2.807128906,-4.915771484,476,-489,335
10553,-3.931884766,-2.806884766,-4.915039063,465,-495,334
10558,-3.930419922,-2.806884766,-4.916748047,495,-505,344
10563,-3.927734375,-2.811767578,-4.914306641,474,-484,347
10568,-3.935546875,-2.808105469,-4.918945313,474,-494,319
10573,-3.934570313,-2.808837891,-4.920654297,464,-500,335
10578,-3.931396484,-2.810302734,-4.916503906,513,-512,319
10583,-3.936035156,-2.809570313,-4.9140625,485,-497,344
10588,-3.930908203,-2.806396484,-4.920898438,477,-477,315
10593,-3.932617188,-2.810791016,-4.916015625,496,-480,351
10598,-3.935058594,-2.807373047,-4.917236328,469,-488,324
10603,-3.930908203,-2.806152344,-4.914550781,506,-475,356
10608,-3.933105469,-2.806396484,-4.917724609,490,-461,337
10613,-3.937255859,-2.808349609,-4.917236328,478,-474,335
10618,-3.931884766,-2.805908203,-4.909179688,469,-503,343
10623,-3.927001953,-2.807617188,-4.921875,466,-500,336
10628,-3.928955078,-2.810546875,-4.91796875,458,-506,324
10633,-3.933349609,-2.807617188,-4.921875,490,-480,323
10638,-3.927246094,-2.808837891,-4.916259766,498,-474,332
10644,-3.933837891,-2.8125,-4.910400391,479,-501,356
10649,-3.935302734,-2.806152344,-4.918212891,458,-492,334
10654,-3.930908203,-2.810058594,-4.919433594,493,-468,338
10659,-3.935302734,-2.806884766,-4.922363281,457,-492,336
10664,-3.932861328,-2.806640625,-4.919433594,473,-486,352
10669,-3.931396484,-2.810546875,-4.91796875,489,-478,344
