Time,Acc_X,Acc_Y,Acc_Z,Gyro_X,Gyro_Y,Gyro_Z
5,-1.928466797,-2.843505859,-4.942871094,463,-491,333
10,-1.931640625,-2.843261719,-4.941650391,474,-494,326
15,-1.932373047,-2.841796875,-4.94140625,477,-489,365
21,-1.928222656,-2.839111328,-4.945800781,495,-515,316
26,-1.934570313,-2.838867188,-4.937011719,487,-517,327
31,-1.931152344,-2.839111328,-4.940673828,490,-516,336
36,-1.929199219,-2.841796875,-4.9375,479,-501,342
41,-1.935791016,-2.8359375,-4.948730469,470,-481,333
46,-1.934082031,-2.840087891,-4.938964844,481,-473,348
51,-1.933837891,-2.84375,-4.937744141,485,-457,349
56,-1.932617188,-2.845458984,-4.936279297,495,-489,349
61,-1.921142578,-2.838867188,-4.940429688,483,-482,336
66,-1.930664063,-2.838378906,-4.938232422,465,-513,359
71,-1.931396484,-2.844482422,-4.94140625,492,-515,323
76,-1.928955078,-2.841308594,-4.941894531,468,-488,356
81,-1.934326172,-2.842773438,-4.944580078,473,-474,360
86,-1.932373047,-2.843505859,-4.939697266,477,-474,329
91,-1.935302734,-2.846435547,-4.937255859,466,-500,337
96,-1.931396484,-2.83984375,-4.940185547,469,-471,306
101,-1.928710938,-2.840087891,-4.944335938,469,-475,361
106,-1.930419922,-2.841796875,-4.937988281,479,-507,322
111,-1.928222656,-2.841064453,-4.949707031,479,-508,338
116,-1.933105469,-2.842529297,-4.944335938,479,-543,346
121,-1.930908203,-2.840087891,-4.947753906,462,-497,315
126,-1.930175781,-2.839355469,-4.940429688,490,-501,304
131,-1.934570313,-2.839599609,-4.941894531,505,-505,363
136,-1.932861328,-2.83984375,-4.936523438,464,-478,334
141,-1.928955078,-2.838867188,-4.942138672,489,-494,331
146,-1.933837891,-2.843505859,-4.945800781,467,-489,352
151,-1.931396484,-2.846191406,-4.940673828,471,-487,340
157,-1.925537109,-2.843261719,-4.936767578,499,-516,323
162,-1.935791016,-2.847412109,-4.94140625,475,-492,351
167,-1.926269531,-2.840087891,-4.939941406,468,-482,328
172,-1.930419922,-2.841308594,-4.937988281,486,-500,328
177,-1.928710938,-2.844482422,-4.937988281,467,-504,348
182,-1.927490234,-2.845703125,-4.945556641,482,-501,325
187,-1.93359375,-2.842773438,-4.944580078,484,-459,356
192,-1.93359375,-2.840820313,-4.938232422,470,-478,327
197,-1.928222656,-2.840576172,-4.937255859,491,-516,350
202,-1.931640625,-2.841308594,-4.938476563,471,-510,362
207,-1.934814453,-2.845703125,-4.935058594,483,-515,339
212,-1.929931641,-2.839355469,-4.938964844,482,-510,341
217,-1.929931641,-2.839355469,-4.941650391,462,-492,314
222,-1.932617188,-2.838623047,-4.946044922,460,-487,352
227,-1.929199219,-2.837402344,-4.942626953,504,-506,347
232,-1.929443359,-2.843261719,-4.942382813,476,-483,323
237,-1.934570313,-2.841064453,-4.943359375,477,-477,327
242,-1.928710938,-2.842285156,-4.943115234,484,-490,342
247,-1.932617188,-2.840820313,-4.934814453,484,-470,328
252,-1.933349609,-2.842529297,-4.942871094,472,-488,352
257,-1.932373047,-2.840820313,-4.944824219,487,-516,347
262,-1.927978516,-2.843261719,-4.939941406,453,-492,321
267,-1.929199219,-2.841796875,-4.939697266,465,-496,321
272,-1.933837891,-2.844726563,-4.939453125,484,-492,344
277,-1.933105469,-2.844482422,-4.937744141,470,-471,362
282,-1.931640625,-2.842285156,-4.938964844,495,-472,342
287,-1.931884766,-2.842529297,-4.939208984,458,-495,345
293,-1.931152344,-2.845703125,-4.941650391,472,-500,352
298,-1.929931641,-2.84375,-4.9375,465,-494,355
303,-1.928955078,-2.841796875,-4.944091797,469,-485,336
308,-1.93359375,-2.841552734,-4.938232422,481,-516,326
313,-1.932861328,-2.842773438,-4.943115234,471,-493,343
318,-1.927490234,-2.842285156,-4.939453125,478,-488,350
323,-1.934570313,-2.841552734,-4.941162109,482,-492,318
328,-1.931640625,-2.837890625,-4.940185547,480,-477,328
333,-1.928710938,-2.843994141,-4.944091797,489,-500,339
338,-1.927490234,-2.842285156,-4.939453125,483,-521,331
343,-1.930419922,-2.843505859,-4.94140625,492,-509,360
348,-1.9296875,-2.840576172,-4.942382813,467,-501,331
353,-1.930664063,-2.840332031,-4.945800781,490,-486,337
358,-1.930175781,-2.843994141,-4.941162109,471,-485,325
363,-1.927246094,-2.840820313,-4.939208984,485,-490,332
368,-1.932617188,-2.841308594,-4.946044922,479,-490,333
373,-1.931152344,-2.839599609,-4.942871094,501,-469,360
378,-1.932128906,-2.843505859,-4.947265625,499,-488,333
383,-1.930175781,-2.840087891,-4.936035156,497,-503,322
388,-1.934570313,-2.84375,-4.939453125,470,-492,346
393,-1.933349609,-2.841796875,-4.943603516,479,-515,340
398,-1.930908203,-2.843994141,-4.940429688,477,-489,331
403,-1.926025391,-2.841308594,-4.947753906,476,-489,339
408,-1.928466797,-2.846191406,-4.940185547,460,-512,362
413,-1.930664063,-2.843505859,-4.941894531,476,-479,323
418,-1.935546875,-2.83984375,-4.939941406,511,-472,348
423,-1.935058594,-2.842529297,-4.940429688,482,-497,374
429,-1.930908203,-2.835693359,-4.938476563,469,-521,318
434,-1.927978516,-2.844970703,-4.937011719,479,-508,345
439,-1.934814453,-2.842285156,-4.941894531,471,-495,329
444,-1.932373047,-2.838378906,-4.945800781,474,-492,337
449,-1.937988281,-2.841064453,-4.940429688,484,-481,343
454,-1.933105469,-2.841308594,-4.941650391,483,-490,360
459,-1.931884766,-2.842041016,-4.941162109,496,-489,333
464,-1.936035156,-2.839111328,-4.930175781,474,-505,337
469,-1.927978516,-2.844970703,-4.942382813,506,-487,335
474,-1.931152344,-2.838867188,-4.940917969,487,-498,329
479,-1.932128906,-2.841064453,-4.94140625,474,-506,331
484,-1.931640625,-2.841064453,-4.939208984,467,-484,364
489,-1.934082031,-2.843505859,-4.94140625,478,-504,336
494,-1.93359375,-2.841552734,-4.938232422,475,-498,325
499,-1.930908203,-2.843017578,-4.943847656,457,-476,354
504,-1.930664063,-2.845703125,-4.945556641,459,-483,354
509,-1.931152344,-2.842773438,-4.942138672,483,-453,360
514,-1.931396484,-2.840332031,-4.935302734,477,-485,340
519,-1.9296875,-2.83984375,-4.938964844,500,-497,347
524,-1.933105469,-2.841796875,-4.940673828,486,-493,345
529,-1.928955078,-2.840087891,-4.935302734,476,-506,344
534,-1.930175781,-2.843994141,-4.946289063,491,-472,329
539,-1.927734375,-2.841308594,-4.941650391,486,-481,321
544,-1.926513672,-2.843017578,-4.942626953,481,-499,345
549,-1.930908203,-2.842529297,-4.943603516,485,-485,337
554,-1.9375,-2.842773438,-4.945556641,481,-495,342
559,-1.931396484,-2.842529297,-4.94140625,490,-489,343
565,-1.934326172,-2.840576172,-4.94140625,489,-493,359
570,-1.930175781,-2.839111328,-4.939697266,466,-490,341
575,-1.928222656,-2.839111328,-4.945556641,477,-498,358
580,-1.930419922,-2.838378906,-4.941650391,504,-498,333
585,-1.932617188,-2.841552734,-4.945068359,469,-486,344
590,-1.9296875,-2.845214844,-4.942382813,482,-493,332
595,-1.933105469,-2.841552734,-4.942871094,483,-480,335
600,-1.928955078,-2.839599609,-4.942871094,480,-482,333
605,-1.930175781,-2.842529297,-4.938232422,504,-491,376
610,-1.932128906,-2.840087891,-4.939453125,445,-469,338
615,-1.930664063,-2.840576172,-4.940185547,473,-483,342
620,-1.928222656,-2.840087891,-4.936523438,501,-508,323
625,-1.937011719,-2.843261719,-4.936279297,469,-521,332
630,-1.9296875,-2.840576172,-4.939941406,477,-493,335
635,-1.931640625,-2.842773438,-4.943115234,488,-502,313
640,-1.929931641,-2.842773438,-4.937988281,483,-483,334
645,-1.930419922,-2.842041016,-4.935302734,465,-485,316
650,-1.927246094,-2.843017578,-4.939941406,486,-479,348
655,-1.932128906,-2.843994141,-4.940429688,478,-487,339
660,-1.932128906,-2.838378906,-4.941650391,492,-474,341
665,-1.931152344,-2.839111328,-4.938476563,478,-497,331
670,-1.929931641,-2.840820313,-4.936279297,491,-510,337
675,-1.933105469,-2.842285156,-4.945556641,486,-494,329
680,-1.93359375,-2.840576172,-4.943115234,468,-514,348
685,-1.931152344,-2.843505859,-4.946289063,472,-510,324
690,-1.932128906,-2.841796875,-4.943847656,474,-487,330
695,-1.929443359,-2.843017578,-4.934814453,504,-497,343
701,-1.932861328,-2.842285156,-4.946044922,457,-476,313
706,-1.927246094,-2.842041016,-4.939941406,473,-490,338
711,-1.930664063,-2.845947266,-4.946289063,466,-495,332
716,-1.932128906,-2.83984375,-4.944091797,493,-502,343
721,-1.931640625,-2.842041016,-4.938476563,476,-486,352
726,-1.933349609,-2.844238281,-4.937744141,482,-486,317
731,-1.93359375,-2.842529297,-4.942871094,485,-473,349
736,-1.930175781,-2.841552734,-4.937744141,487,-504,340
741,-1.932373047,-2.842041016,-4.947265625,464,-505,348
746,-1.929199219,-2.843505859,-4.937988281,468,-500,330
751,-1.931640625,-2.842529297,-4.943847656,474,-498,341
756,-1.933105469,-2.840820313,-4.943359375,478,-508,338
761,-1.93359375,-2.843261719,-4.937744141,489,-518,339
766,-1.936279297,-2.840332031,-4.934814453,490,-501,342
771,-1.928710938,-2.841796875,-4.944091797,486,-485,339
776,-1.930664063,-2.844726563,-4.942382813,484,-482,339
781,-1.928710938,-2.844238281,-4.936767578,473,-490,328
786,-1.931396484,-2.842529297,-4.939208984,483,-488,353
791,-1.934570313,-2.843261719,-4.943847656,484,-495,369
796,-1.931640625,-2.842285156,-4.936279297,476,-495,337
801,-1.927246094,-2.841796875,-4.939453125,490,-513,314
806,-1.932617188,-2.842773438,-4.94140625,460,-459,307
811,-1.928466797,-2.842041016,-4.940185547,475,-497,320
816,-1.931396484,-2.843017578,-4.930908203,473,-500,333
821,-1.932373047,-2.843017578,-4.939697266,469,-481,342
826,-1.928466797,-2.837402344,-4.938232422,484,-483,346
831,-1.927734375,-2.843505859,-4.946533203,489,-480,357
837,-1.934082031,-2.842041016,-4.935546875,471,-481,347
842,-1.9296875,-2.842529297,-4.945556641,509,-469,317
847,-1.928222656,-2.839599609,-4.940917969,478,-488,342
852,-1.934082031,-2.844238281,-4.936279297,489,-500,337
857,-1.936035156,-2.843017578,-4.943603516,487,-472,305
862,-1.9296875,-2.840820313,-4.937255859,461,-486,321
867,-1.928710938,-2.841552734,-4.9375,481,-492,346
872,-1.931152344,-2.837890625,-4.937744141,489,-493,336
877,-1.926757813,-2.842041016,-4.937255859,474,-493,333
882,-1.930908203,-2.840087891,-4.942138672,484,-476,322
887,-1.929931641,-2.843017578,-4.943603516,505,-500,345
892,-1.927734375,-2.843505859,-4.94140625,477,-496,351
897,-1.934570313,-2.839355469,-4.943359375,475,-475,334
902,-1.932128906,-2.84375,-4.941162109,453,-484,323
907,-1.927490234,-2.840332031,-4.948730469,498,-493,342
912,-1.931396484,-2.842041016,-4.946289063,482,-464,330
917,-1.931152344,-2.841064453,-4.941162109,488,-488,318
922,-1.932373047,-2.841552734,-4.946533203,478,-505,342
927,-1.934570313,-2.844482422,-4.94140625,471,-495,339
932,-1.929199219,-2.841552734,-4.940917969,496,-510,323
937,-1.929931641,-2.840820313,-4.944824219,494,-508,346
942,-1.9375,-2.841552734,-4.942138672,470,-492,317
947,-1.931396484,-2.841552734,-4.943603516,469,-480,351
952,-1.928466797,-2.840820313,-4.935791016,460,-455,369
957,-1.932128906,-2.840576172,-4.939941406,476,-480,330
962,-1.929931641,-2.842285156,-4.941162109,485,-480,337
967,-1.927001953,-2.844238281,-4.939208984,481,-474,331
973,-1.935546875,-2.837890625,-4.931396484,461,-502,353
978,-1.931640625,-2.838623047,-4.940673828,471,-483,338
983,-1.928222656,-2.843505859,-4.942626953,484,-497,329
988,-1.932617188,-2.843261719,-4.934082031,477,-509,317
993,-1.931152344,-2.84375,-4.937988281,498,-473,349
998,-1.925537109,-2.840820313,-4.940673828,476,-505,334
1003,-1.931884766,-2.844726563,-4.9453125,487,-532,343
1008,-1.926269531,-2.840820313,-4.939208984,473,-487,323
1013,-1.928466797,-2.841796875,-4.935546875,471,-491,319
1018,-1.933349609,-2.848388672,-4.937011719,468,-482,322
1023,-1.929443359,-2.841308594,-4.941162109,486,-497,318
1028,-1.932128906,-2.840820313,-4.945556641,468,-479,346
1033,-1.933105469,-2.843505859,-4.937744141,492,-476,341
1038,-1.929443359,-2.845458984,-4.950927734,483,-499,331
1043,-1.933837891,-2.838623047,-4.945800781,485,-511,333
1048,-1.936279297,-2.838867188,-4.938964844,463,-478,325
1053,-1.930664063,-2.840576172,-4.943359375,474,-485,331
1058,-1.931152344,-2.847900391,-4.943603516,498,-473,344
1063,-1.927490234,-2.840087891,-4.94140625,475,-480,313
1068,-1.928955078,-2.838867188,-4.930664063,487,-516,338
1073,-1.931396484,-2.839111328,-4.934814453,470,-477,316
1078,-1.932128906,-2.844482422,-4.935791016,483,-485,342
1083,-1.934326172,-2.841064453,-4.942871094,478,-504,340
1088,-1.930419922,-2.844970703,-4.947021484,472,-503,307
1093,-1.931640625,-2.837402344,-4.937744141,468,-492,362
1098,-1.931152344,-2.840576172,-4.935302734,486,-465,329
1103,-1.926025391,-2.841796875,-4.939208984,488,-500,345
1109,-1.930419922,-2.841796875,-4.941650391,491,-484,337
1114,-1.927246094,-2.842773438,-4.947265625,476,-499,343
1119,-1.931396484,-2.843017578,-4.948242188,495,-493,346
1124,-1.9296875,-2.839111328,-4.939208984,497,-518,344
1129,-1.933837891,-2.844726563,-4.940185547,476,-463,346
1134,-1.93359375,-2.845458984,-4.946777344,479,-499,324
1139,-1.931640625,-2.844970703,-4.945068359,490,-473,332
1144,-1.933349609,-2.840820313,-4.933105469,477,-494,347
1149,-1.926269531,-2.844238281,-4.940673828,483,-488,314
1154,-1.933105469,-2.842529297,-4.936523438,475,-520,348
1159,-1.929199219,-2.840087891,-4.947998047,469,-492,355
1164,-1.928955078,-2.840820313,-4.935546875,470,-482,327
1169,-1.929443359,-2.842529297,-4.934326172,502,-499,345
1174,-1.929443359,-2.842529297,-4.942626953,488,-484,338
1179,-1.931884766,-2.84375,-4.947265625,480,-488,315
1184,-1.931884766,-2.840820313,-4.934326172,481,-487,340
1189,-1.931396484,-2.845703125,-4.938964844,496,-499,363
1194,-1.932617188,-2.843261719,-4.938476563,482,-507,358
1199,-1.931640625,-2.842285156,-4.941650391,472,-498,343
1204,-1.931884766,-2.842529297,-4.935791016,485,-495,342
1209,-1.928710938,-2.842773438,-4.942138672,482,-495,326
1214,-1.934814453,-2.840576172,-4.944580078,476,-491,317
1219,-1.931640625,-2.843994141,-4.932373047,473,-489,342
1224,-1.930908203,-2.841064453,-4.939453125,490,-503,341
1229,-1.932128906,-2.839355469,-4.942626953,487,-505,338
1234,-1.930419922,-2.841796875,-4.937744141,466,-487,307
1239,-1.925537109,-2.840087891,-4.938964844,499,-479,320
1245,-1.931152344,-2.843017578,-4.938720703,478,-492,322
1250,-1.929199219,-2.839111328,-4.942138672,504,-502,351
1255,-1.928955078,-2.843994141,-4.943603516,494,-482,353
1260,-1.932861328,-2.842285156,-4.941894531,487,-477,335
1265,-1.927001953,-2.844238281,-4.947021484,481,-489,332
1270,-1.930419922,-2.842529297,-4.943115234,470,-493,340
1275,-1.934082031,-2.840576172,-4.947021484,496,-483,331
1280,-1.927978516,-2.84375,-4.943359375,485,-498,339
1285,-1.929443359,-2.843505859,-4.942382813,465,-481,353
1290,-1.933837891,-2.842773438,-4.94140625,466,-496,344
1295,-1.933349609,-2.838134766,-4.937255859,468,-489,321
1300,-1.931640625,-2.84375,-4.934814453,499,-493,350
1305,-1.93359375,-2.840332031,-4.937744141,488,-485,320
1310,-1.931396484,-2.841064453,-4.939697266,491,-502,350
1315,-1.929931641,-2.843994141,-4.940185547,466,-484,359
1320,-1.930664063,-2.843994141,-4.940429688,498,-505,324
1325,-1.931152344,-2.843017578,-4.935058594,479,-476,325
1330,-1.931884766,-2.841552734,-4.935058594,456,-507,323
1335,-1.931396484,-2.843261719,-4.940673828,496,-498,340
1340,-1.927246094,-2.844482422,-4.938964844,468,-489,359
1345,-1.930175781,-2.840087891,-4.936279297,455,-492,350
1350,-1.929931641,-2.84375,-4.944335938,467,-510,326
1355,-1.929931641,-2.844970703,-4.947753906,480,-490,332
1360,-1.930664063,-2.839599609,-4.941894531,471,-515,339
1365,-1.932617188,-2.842773438,-4.946044922,477,-477,353
1370,-1.926269531,-2.843261719,-4.942626953,490,-481,344
1375,-1.929199219,-2.840087891,-4.938232422,445,-489,328
1381,-1.929443359,-2.84375,-4.945800781,479,-467,316
1386,-1.933105469,-2.843994141,-4.944824219,480,-509,336
1391,-1.93359375,-2.842529297,-4.938476563,486,-499,328
1396,-1.935791016,-2.837890625,-4.949462891,474,-488,337
1401,-1.932128906,-2.840332031,-4.94140625,488,-506,316
1406,-1.9296875,-2.842285156,-4.944091797,454,-500,321
1411,-1.928955078,-2.841308594,-4.939697266,472,-498,346
1416,-1.930175781,-2.840087891,-4.942138672,491,-471,327
1421,-1.931884766,-2.841308594,-4.937011719,480,-493,357
1426,-1.933105469,-2.838623047,-4.941650391,480,-492,351
1431,-1.932373047,-2.841796875,-4.944335938,456,-486,380
1436,-1.934570313,-2.842041016,-4.940673828,467,-492,327
1441,-1.932861328,-2.840087891,-4.946777344,487,-486,334
1446,-1.927490234,-2.840820313,-4.944824219,465,-482,329
1451,-1.930908203,-2.845947266,-4.938964844,490,-497,345
1456,-1.930175781,-2.841064453,-4.948242188,473,-501,320
1461,-1.930908203,-2.84375,-4.946777344,485,-498,347
1466,-1.932617188,-2.845947266,-4.938232422,487,-483,335
1471,-1.929931641,-2.841064453,-4.942138672,500,-505,320
1476,-1.931396484,-2.837646484,-4.939453125,486,-476,343
1481,-1.931396484,-2.839111328,-4.936279297,493,-497,329
1486,-1.9296875,-2.843017578,-4.939208984,484,-514,360
1491,-1.933105469,-2.84375,-4.940185547,467,-505,319
1496,-1.934082031,-2.838623047,-4.941894531,481,-504,311
1501,-1.933349609,-2.842041016,-4.936767578,489,-483,337
1506,-1.931152344,-2.841552734,-4.939697266,480,-472,340
1511,-1.928710938,-2.842773438,-4.942871094,479,-495,333
1517,-1.930908203,-2.843994141,-4.938964844,500,-508,338
1522,-1.929931641,-2.843017578,-4.942871094,463,-499,343
1527,-1.932373047,-2.843505859,-4.940429688,473,-477,323
1532,-1.932861328,-2.843261719,-4.940673828,479,-486,365
1537,-1.9296875,-2.840332031,-4.937744141,492,-500,320
1542,-1.929443359,-2.840820313,-4.938232422,461,-472,333
1547,-1.9296875,-2.839599609,-4.942382813,465,-497,334
1552,-1.928955078,-2.844726563,-4.941650391,473,-497,335
1557,-1.931640625,-2.840576172,-4.936767578,486,-491,317
1562,-1.932128906,-2.842773438,-4.937255859,494,-505,347
1567,-1.933105469,-2.840087891,-4.931884766,482,-472,336
1572,-1.928222656,-2.841064453,-4.9453125,484,-489,335
1577,-1.932617188,-2.841064453,-4.940673828,477,-505,341
1582,-1.930664063,-2.839355469,-4.939697266,476,-486,335
1587,-1.932373047,-2.842773438,-4.937744141,488,-493,368
1592,-1.932128906,-2.841308594,-4.942626953,473,-492,347
1597,-1.931152344,-2.843261719,-4.941162109,485,-474,346
1602,-1.933105469,-2.841552734,-4.937744141,496,-496,342
1607,-1.930908203,-2.84375,-4.944335938,468,-503,346
1612,-1.926269531,-2.842285156,-4.943603516,470,-461,333
1617,-1.93359375,-2.843261719,-4.941650391,482,-475,360
1622,-1.929931641,-2.842529297,-4.938476563,474,-484,320
1627,-1.929931641,-2.842285156,-4.942138672,490,-495,324
1632,-1.934570313,-2.841796875,-4.939208984,470,-498,350
1637,-1.929199219,-2.841308594,-4.934082031,479,-492,343
1642,-1.928466797,-2.844726563,-4.934082031,494,-495,335
1647,-1.9296875,-2.839599609,-4.939453125,491,-497,318
1653,-1.934082031,-2.840576172,-4.954101563,483,-502,356
1658,-1.93359375,-2.842041016,-4.938476563,485,-501,333
1663,-1.933837891,-2.843261719,-4.946289063,469,-487,352
1668,-1.934082031,-2.843017578,-4.934326172,465,-489,350
1673,-1.928222656,-2.844726563,-4.940429688,485,-471,323
1678,-1.929931641,-2.843505859,-4.940429688,465,-493,344
1683,-1.928466797,-2.83984375,-4.940429688,490,-502,331
1688,-1.931152344,-2.840576172,-4.940429688,477,-500,342
1693,-1.932617188,-2.840820313,-4.9375,481,-486,345
1698,-1.933349609,-2.841064453,-4.936279297,468,-482,325
1703,-1.934570313,-2.844238281,-4.946044922,497,-503,354
1708,-1.932861328,-2.839111328,-4.945800781,492,-486,312
1713,-1.927001953,-2.839599609,-4.935302734,461,-512,318
1718,-1.929931641,-2.839111328,-4.944091797,485,-501,341
1723,-1.933349609,-2.840820313,-4.943603516,474,-465,341
1728,-1.923828125,-2.838378906,-4.936767578,459,-497,317
1733,-1.927001953,-2.843017578,-4.938476563,484,-523,349
1738,-1.933349609,-2.844238281,-4.942138672,482,-510,334
1743,-1.927978516,-2.840332031,-4.950683594,480,-503,336
1748,-1.929931641,-2.842773438,-4.939208984,487,-488,352
1753,-1.929931641,-2.841796875,-4.944335938,475,-499,335
1758,-1.929199219,-2.841308594,-4.939941406,481,-513,338
1763,-1.930419922,-2.844970703,-4.945068359,478,-509,356
1768,-1.932373047,-2.843261719,-4.934570313,466,-501,339
1773,-1.926269531,-2.839599609,-4.937744141,470,-496,331
1778,-1.929443359,-2.839111328,-4.943847656,478,-506,355
1783,-1.932861328,-2.846435547,-4.937988281,473,-507,355
1789,-1.9296875,-2.844238281,-4.944335938,457,-499,321
1794,-1.929443359,-2.842285156,-4.940673828,501,-519,329
1799,-1.932128906,-2.841064453,-4.940185547,461,-481,309
1804,-1.932861328,-2.841308594,-4.941894531,488,-480,335
1809,-1.931152344,-2.844970703,-4.936767578,477,-499,327
1814,-1.932128906,-2.83984375,-4.941162109,475,-449,331
1819,-1.929931641,-2.837158203,-4.942871094,495,-508,319
1824,-1.933837891,-2.843505859,-4.940429688,490,-499,334
1829,-1.931396484,-2.843505859,-4.936523438,465,-490,333
1834,-1.9296875,-2.843994141,-4.940673828,461,-506,333
1839,-1.929931641,-2.843505859,-4.940673828,486,-497,341
1844,-1.934326172,-2.841308594,-4.94140625,482,-496,344
1849,-1.929443359,-2.843994141,-4.935791016,477,-490,333
1854,-1.933349609,-2.838867188,-4.939941406,470,-494,338
1859,-1.930419922,-2.838378906,-4.942871094,479,-484,326
1864,-1.930664063,-2.843017578,-4.937255859,485,-481,340
1869,-1.930419922,-2.83984375,-4.939453125,487,-464,358
1874,-1.931152344,-2.845703125,-4.939697266,471,-487,321
1879,-1.927001953,-2.842773438,-4.939941406,480,-500,340
1884,-1.929931641,-2.841308594,-4.940429688,481,-478,328
1889,-1.930419922,-2.840332031,-4.941650391,480,-494,313
1894,-1.933349609,-2.841796875,-4.940917969,470,-490,337
1899,-1.934082031,-2.842285156,-4.938476563,464,-484,335
1904,-1.927978516,-2.84765625,-4.946777344,468,-483,351
1909,-1.927490234,-2.841796875,-4.939697266,495,-468,332
1914,-1.9296875,-2.840820313,-4.938476563,482,-498,324
1919,-1.931152344,-2.840087891,-4.940429688,467,-483,317
1925,-1.930419922,-2.840576172,-4.93359375,464,-474,351
1930,-1.931396484,-2.841552734,-4.944580078,457,-497,325
1935,-1.931152344,-2.844238281,-4.943603516,486,-483,313
1940,-1.932373047,-2.843017578,-4.942626953,495,-480,350
1945,-1.932373047,-2.840820313,-4.938232422,470,-494,339
1950,-1.933349609,-2.844238281,-4.935546875,504,-500,330
1955,-1.931396484,-2.844238281,-4.944335938,482,-493,338
1960,-1.9296875,-2.838623047,-4.938720703,496,-487,341
1965,-1.928222656,-2.845214844,-4.9375,479,-485,332
1970,-1.931152344,-2.844726563,-4.932617188,477,-507,346
1975,-1.9296875,-2.840087891,-4.94140625,472,-493,337
1980,-1.931640625,-2.840820313,-4.941162109,484,-496,330
1985,-1.928466797,-2.844238281,-4.940917969,459,-495,338
1990,-1.934814453,-2.842529297,-4.944580078,461,-492,348
1995,-1.931884766,-2.843505859,-4.944580078,500,-487,344
2000,-1.932861328,-2.840576172,-4.940429688,489,-494,334
2005,-1.927978516,-2.838134766,-4.943359375,466,-518,340
2010,-1.930664063,-2.840820313,-4.937988281,477,-501,343
2015,-1.9296875,-2.841552734,-4.944335938,476,-474,331
2020,-1.927734375,-2.843017578,-4.949462891,480,-484,331
2025,-1.928222656,-2.839599609,-4.948242188,473,-482,330
2030,-1.929931641,-2.840820313,-4.938964844,460,-497,336
2035,-1.931152344,-2.83984375,-4.943359375,486,-478,348
2040,-1.934326172,-2.843017578,-4.947021484,496,-486,324
2045,-1.928466797,-2.841796875,-4.936279297,458,-474,321
2050,-1.935302734,-2.843017578,-4.940429688,486,-483,344
2055,-1.931640625,-2.843261719,-4.939697266,468,-470,334
2061,-1.927490234,-2.841064453,-4.934570313,480,-490,358
2066,-1.932861328,-2.842529297,-4.942382813,465,-503,337
2071,-1.929931641,-2.842041016,-4.943359375,476,-502,312
2076,-1.930419922,-2.840332031,-4.942626953,462,-481,346
2081,-1.931884766,-2.842041016,-4.940673828,489,-494,341
2086,-1.930175781,-2.843505859,-4.946289063,480,-491,344
2091,-1.926757813,-2.840332031,-4.941650391,487,-495,323
2096,-1.932128906,-2.844238281,-4.942626953,493,-505,341
2101,-1.933349609,-2.841796875,-4.944335938,481,-506,344
2106,-1.927978516,-2.843017578,-4.939697266,454,-471,345
2111,-1.932617188,-2.839355469,-4.939697266,466,-498,353
2116,-1.929199219,-2.840576172,-4.931640625,483,-481,334
2121,-1.929443359,-2.841796875,-4.939208984,474,-462,354
2126,-1.933105469,-2.840332031,-4.941650391,486,-478,333
2131,-1.934326172,-2.841796875,-4.939697266,465,-479,329
2136,-1.928466797,-2.843994141,-4.937988281,486,-464,326
2141,-1.934326172,-2.842041016,-4.941162109,497,-490,326
2146,-1.926269531,-2.840576172,-4.938720703,471,-498,352
2151,-1.930908203,-2.842285156,-4.929931641,476,-498,333
2156,-1.933349609,-2.842285156,-4.948974609,497,-478,330
2161,-1.931884766,-2.842041016,-4.946533203,476,-491,331
2166,-1.932128906,-2.844238281,-4.939208984,496,-474,337
2171,-1.930664063,-2.840087891,-4.939697266,464,-508,336
2176,-1.931396484,-2.842529297,-4.943847656,463,-481,337
2181,-1.930175781,-2.837646484,-4.939697266,486,-469,341
2186,-1.935546875,-2.838134766,-4.939697266,477,-497,333
2191,-1.928222656,-2.840820313,-4.942138672,510,-510,326
2197,-1.932861328,-2.841308594,-4.934326172,483,-483,335
2202,-1.933349609,-2.846191406,-4.9453125,461,-474,344
2207,-1.924316406,-2.840332031,-4.952636719,476,-512,334
2212,-1.929199219,-2.845947266,-4.936523438,483,-487,321
2217,-1.930908203,-2.840332031,-4.941162109,478,-484,344
2222,-1.926513672,-2.842529297,-4.940917969,470,-490,322
2227,-1.924316406,-2.839111328,-4.943847656,461,-470,301
2232,-1.935058594,-2.841064453,-4.942626953,490,-490,326
2237,-1.929443359,-2.840576172,-4.935546875,486,-507,323
2242,-1.929199219,-2.839111328,-4.938476563,466,-491,330
2247,-1.931640625,-2.839355469,-4.942138672,454,-497,346
2252,-1.931396484,-2.84375,-4.947021484,492,-494,325
2257,-1.932128906,-2.840820313,-4.938720703,470,-486,325
2262,-1.930908203,-2.844726563,-4.938964844,474,-480,340
2267,-1.927490234,-2.840087891,-4.9375,477,-492,343
2272,-1.931152344,-2.84375,-4.939697266,487,-508,327
2277,-1.933105469,-2.843505859,-4.939941406,465,-492,331
2282,-1.931396484,-2.842773438,-4.9375,487,-500,350
2287,-1.934570313,-2.846191406,-4.935302734,470,-497,351
2292,-1.932373047,-2.839355469,-4.939941406,490,-496,350
2297,-1.934082031,-2.843261719,-4.939453125,483,-507,358
2302,-1.933349609,-2.844970703,-4.943359375,485,-456,333
2307,-1.927246094,-2.841796875,-4.940673828,464,-482,348
2312,-1.928466797,-2.841308594,-4.9453125,491,-508,344
2317,-1.931396484,-2.842529297,-4.937255859,493,-491,343
2322,-1.93359375,-2.841064453,-4.942871094,466,-479,336
2327,-1.930664063,-2.838867188,-4.938720703,491,-497,329
2333,-1.934082031,-2.839111328,-4.940429688,492,-490,344
2338,-1.934082031,-2.841796875,-4.943603516,487,-478,339
2343,-1.930664063,-2.840332031,-4.94140625,493,-497,333
2348,-1.93359375,-2.845214844,-4.939941406,482,-512,331
2353,-1.931884766,-2.844726563,-4.939453125,475,-484,331
2358,-1.929199219,-2.843017578,-4.941650391,494,-487,336
2363,-1.930664063,-2.840576172,-4.9375,498,-485,326
2368,-1.929931641,-2.843994141,-4.946044922,489,-487,339
2373,-1.9296875,-2.839355469,-4.936035156,484,-512,352
2378,-1.925048828,-2.840576172,-4.943115234,487,-508,341
2383,-1.933837891,-2.839111328,-4.938476563,486,-489,318
2388,-1.927490234,-2.846435547,-4.942626953,498,-499,338
2393,-1.930175781,-2.841064453,-4.938964844,479,-472,334
2398,-1.933105469,-2.843505859,-4.937988281,485,-494,352
2403,-1.932128906,-2.841796875,-4.94921875,484,-510,337
2408,-1.931640625,-2.843017578,-4.942626953,482,-499,335
2413,-1.932373047,-2.841552734,-4.939941406,487,-477,326
2418,-1.928955078,-2.845947266,-4.937988281,494,-463,355
2423,-1.930175781,-2.840820313,-4.94140625,504,-491,335
2428,-1.930175781,-2.841796875,-4.944335938,478,-497,302
2433,-1.927490234,-2.845703125,-4.940429688,472,-479,338
2438,-1.928710938,-2.843017578,-4.948242188,499,-514,326
2443,-1.929443359,-2.841064453,-4.940429688,463,-498,357
2448,-1.931396484,-2.844482422,-4.947021484,491,-490,323
2453,-1.931152344,-2.841308594,-4.943115234,471,-483,341
2458,-1.930664063,-2.842529297,-4.940673828,483,-478,342
2463,-1.929931641,-2.844238281,-4.940185547,505,-508,358
2469,-1.929443359,-2.841308594,-4.939208984,487,-483,344
2474,-1.931396484,-2.841064453,-4.941162109,459,-485,328
2479,-1.927490234,-2.843261719,-4.936279297,464,-495,319
2484,-1.931396484,-2.839355469,-4.939697266,477,-493,315
2489,-1.928466797,-2.841308594,-4.942871094,475,-482,343
2494,-1.925537109,-2.842041016,-4.9375,467,-500,319
2499,-1.929931641,-2.844970703,-4.940917969,492,-479,337
2504,-1.936523438,-2.843261719,-4.947021484,454,-501,361
2509,-1.931152344,-2.842773438,-4.937011719,493,-492,340
2514,-1.931640625,-2.842041016,-4.948242188,477,-497,348
2519,-1.934082031,-2.842041016,-4.947021484,494,-499,367
2524,-1.928710938,-2.841308594,-4.940429688,480,-471,323
2529,-1.930908203,-2.841308594,-4.942871094,484,-516,353
2534,-1.93359375,-2.84375,-4.940429688,495,-498,313
2539,-1.926757813,-2.844482422,-4.940673828,475,-487,333
2544,-1.931884766,-2.840087891,-4.941650391,496,-509,341
2549,-1.931152344,-2.843505859,-4.941162109,462,-499,341
2554,-1.931884766,-2.843505859,-4.939453125,466,-494,322
2559,-1.932128906,-2.839355469,-4.938232422,480,-484,343
2564,-1.934326172,-2.841796875,-4.934570313,474,-477,332
2569,-1.930419922,-2.843505859,-4.938476563,472,-485,330
2574,-1.932617188,-2.840332031,-4.939697266,476,-499,358
2579,-1.932861328,-2.839111328,-4.947021484,467,-470,333
2584,-1.931152344,-2.845214844,-4.942138672,480,-504,331
2589,-1.934326172,-2.834960938,-4.935791016,466,-512,339
2594,-1.932373047,-2.842285156,-4.938964844,470,-485,338
2599,-1.932373047,-2.838623047,-4.937011719,470,-499,341
2605,-1.934326172,-2.844482422,-4.940185547,457,-505,354
2610,-1.93359375,-2.843017578,-4.938964844,457,-487,343
2615,-1.928955078,-2.845703125,-4.942382813,464,-501,336
2620,-1.9296875,-2.844238281,-4.943359375,491,-506,303
2625,-1.930419922,-2.841064453,-4.940185547,487,-492,319
2630,-1.929931641,-2.842529297,-4.935058594,489,-491,328
2635,-1.930175781,-2.839599609,-4.9453125,480,-519,353
2640,-1.931152344,-2.843994141,-4.940917969,496,-490,341
2645,-1.933837891,-2.840576172,-4.937011719,479,-509,318
2650,-1.932861328,-2.844970703,-4.935546875,473,-475,358
2655,-1.931152344,-2.842529297,-4.942138672,495,-479,310
2660,-1.932373047,-2.840087891,-4.944824219,481,-496,335
2665,-1.929931641,-2.841064453,-4.942626953,455,-490,319
2670,-1.925292969,-2.842285156,-4.936767578,468,-486,320
2675,-1.929443359,-2.845214844,-4.938232422,469,-485,340
2680,-1.931640625,-2.840576172,-4.940185547,489,-496,309
2685,-1.924072266,-2.842773438,-4.938720703,475,-483,351
2690,-1.927001953,-2.841064453,-4.939453125,488,-489,333
2695,-1.933105469,-2.839111328,-4.939697266,483,-501,337
2700,-1.928222656,-2.841308594,-4.941162109,485,-479,329
2705,-1.933349609,-2.840332031,-4.935546875,486,-479,321
2710,-1.931640625,-2.842041016,-4.944091797,461,-491,324
2715,-1.929199219,-2.83984375,-4.947265625,476,-481,339
2720,-1.930419922,-2.840332031,-4.940917969,475,-478,349
2725,-1.928466797,-2.843505859,-4.934814453,464,-488,344
2730,-1.927978516,-2.843261719,-4.9375,471,-500,342
2735,-1.930664063,-2.841064453,-4.939941406,477,-513,327
2741,-1.93359375,-2.840576172,-4.938964844,477,-498,342
2746,-1.930908203,-2.841796875,-4.942382813,486,-494,330
2751,-1.928466797,-2.843261719,-4.942382813,464,-498,342
2756,-1.930419922,-2.846923828,-4.9453125,478,-482,338
2761,-1.933105469,-2.844482422,-4.943115234,464,-494,333
2766,-1.934082031,-2.843994141,-4.939208984,466,-496,347
2771,-1.931396484,-2.839111328,-4.943603516,468,-510,335
2776,-1.931640625,-2.838867188,-4.936523438,487,-496,342
2781,-1.930908203,-2.844726563,-4.941894531,480,-512,339
2786,-1.9296875,-2.840087891,-4.937011719,468,-500,327
2791,-1.931640625,-2.845214844,-4.948486328,496,-514,345
2796,-1.928222656,-2.840332031,-4.940185547,484,-496,328
2801,-1.931152344,-2.843994141,-4.937988281,476,-501,334
2806,-1.928466797,-2.83984375,-4.943115234,481,-461,348
2811,-1.929931641,-2.841796875,-4.934814453,482,-464,326
2816,-1.932373047,-2.845703125,-4.943359375,455,-475,321
2821,-1.931152344,-2.841064453,-4.937988281,503,-487,344
2826,-1.928955078,-2.841064453,-4.936035156,492,-495,337
2831,-1.930664063,-2.839355469,-4.944091797,473,-491,350
2836,-1.930419922,-2.83984375,-4.940429688,476,-493,332
2841,-1.934814453,-2.840087891,-4.940917969,467,-504,323
2846,-1.937011719,-2.83984375,-4.941650391,467,-495,331
2851,-1.933349609,-2.842285156,-4.936767578,469,-481,332
2856,-1.927246094,-2.840332031,-4.9453125,476,-470,363
2861,-1.932373047,-2.840576172,-4.944824219,473,-472,344
2866,-1.930419922,-2.842285156,-4.944580078,470,-489,335
2871,-1.926269531,-2.838867188,-4.939941406,487,-516,342
2877,-1.932373047,-2.843261719,-4.938232422,461,-489,371
2882,-1.929199219,-2.841064453,-4.9375,497,-509,322
2887,-1.930908203,-2.843261719,-4.945556641,475,-511,331
2892,-1.929443359,-2.841308594,-4.936035156,485,-497,330
2897,-1.933837891,-2.841064453,-4.936035156,479,-480,342
2902,-1.932128906,-2.842529297,-4.941894531,487,-478,361
2907,-1.934570313,-2.840576172,-4.94140625,465,-486,336
2912,-1.932861328,-2.839355469,-4.939941406,489,-498,356
2917,-1.930664063,-2.842041016,-4.940429688,473,-473,352
2922,-1.930908203,-2.840820313,-4.937988281,479,-495,365
2927,-1.92578125,-2.843994141,-4.938476563,488,-488,310
2932,-1.924804688,-2.84375,-4.943115234,482,-497,351
2937,-1.933349609,-2.840576172,-4.940185547,483,-509,350
2942,-1.932373047,-2.842285156,-4.946289063,480,-486,345
2947,-1.931884766,-2.84375,-4.944824219,490,-495,351
2952,-1.935791016,-2.838867188,-4.943847656,471,-496,341
2957,-1.930908203,-2.843017578,-4.933837891,488,-486,352
2962,-1.934082031,-2.843505859,-4.943847656,503,-499,352
2967,-1.934326172,-2.837646484,-4.944580078,471,-481,359
2972,-1.928710938,-2.844238281,-4.940917969,459,-508,337
2977,-1.930175781,-2.841796875,-4.938232422,468,-488,327
2982,-1.935058594,-2.843017578,-4.936523438,483,-497,339
2987,-1.930664063,-2.840576172,-4.942626953,489,-486,352
2992,-1.929443359,-2.841552734,-4.941894531,478,-473,351
2997,-1.932617188,-2.842285156,-4.944335938,486,-484,332
3002,-1.927734375,-2.840820313,-4.943603516,479,-466,327
3007,-1.931396484,-2.841308594,-4.936767578,482,-492,348
3012,-1.935058594,-2.840576172,-4.937011719,485,-488,343
3018,-1.930908203,-2.844970703,-4.941650391,498,-502,327
3023,-1.932128906,-2.841796875,-4.943359375,483,-513,330
3028,-1.927978516,-2.83984375,-4.939941406,497,-493,316
3033,-1.931396484,-2.843017578,-4.939941406,481,-487,308
3038,-1.937011719,-2.84375,-4.945800781,475,-481,329
3043,-1.931640625,-2.842773438,-4.938964844,465,-477,363
3048,-1.927490234,-2.840820313,-4.940429688,490,-498,327
3053,-1.930419922,-2.839355469,-4.949462891,491,-471,326
3058,-1.931640625,-2.841796875,-4.940429688,461,-500,333
3063,-1.929931641,-2.84375,-4.941650391,474,-490,340
3068,-1.930175781,-2.840087891,-4.948486328,473,-482,313
3073,-1.926269531,-2.841796875,-4.939697266,502,-502,311
3078,-1.933105469,-2.843017578,-4.938476563,481,-486,328
3083,-1.932373047,-2.846191406,-4.943359375,500,-506,338
3088,-1.930664063,-2.83984375,-4.939697266,483,-498,329
3093,-1.933349609,-2.843261719,-4.939697266,471,-481,363
3098,-1.932373047,-2.841064453,-4.943115234,489,-498,339
3103,-1.931396484,-2.842041016,-4.946044922,478,-490,339
3108,-1.931884766,-2.844726563,-4.939208984,486,-485,332
3113,-1.931640625,-2.841064453,-4.943359375,484,-494,344
3118,-1.930419922,-2.84375,-4.945556641,465,-495,335
3123,-1.932128906,-2.837646484,-4.939208984,492,-486,350
3128,-1.930664063,-2.843994141,-4.937011719,479,-506,353
3133,-1.931152344,-2.844970703,-4.940917969,482,-488,333
3138,-1.931396484,-2.838378906,-4.941162109,506,-490,344
3143,-1.931640625,-2.841308594,-4.936523438,477,-502,350
3148,-1.932128906,-2.842773438,-4.937011719,493,-491,345
3154,-1.928222656,-2.842285156,-4.944580078,462,-497,333
3159,-1.930908203,-2.842773438,-4.942138672,483,-514,321
3164,-1.932861328,-2.841552734,-4.936035156,483,-479,299
3169,-1.926269531,-2.843994141,-4.939697266,473,-501,342
3174,-1.936035156,-2.845703125,-4.935058594,472,-493,339
3179,-1.935058594,-2.839599609,-4.938232422,466,-468,338
3184,-1.929199219,-2.841064453,-4.936035156,468,-490,321
3189,-1.928466797,-2.836425781,-4.946289063,471,-479,365
3194,-1.934082031,-2.841064453,-4.943115234,482,-501,321
3199,-1.932617188,-2.843261719,-4.940429688,456,-501,324
3204,-1.927734375,-2.845214844,-4.935058594,463,-480,337
3209,-1.937011719,-2.844482422,-4.941894531,491,-495,332
3214,-1.933105469,-2.841064453,-4.940673828,472,-475,339
3219,-1.926757813,-2.843017578,-4.941162109,478,-465,329
3224,-1.930664063,-2.842773438,-4.943847656,475,-483,350
3229,-1.927246094,-2.841796875,-4.945800781,469,-483,332
3234,-1.927978516,-2.843994141,-4.945068359,462,-494,336
3239,-1.933349609,-2.844970703,-4.940429688,485,-489,337
3244,-1.930419922,-2.845214844,-4.942626953,496,-511,349
3249,-1.929931641,-2.842773438,-4.945068359,488,-501,330
3254,-1.931396484,-2.840087891,-4.942382813,484,-477,329
3259,-1.927490234,-2.842041016,-4.943359375,480,-491,321
3264,-1.932373047,-2.843017578,-4.937988281,471,-488,322
3269,-1.934814453,-2.841552734,-4.941650391,475,-504,322
3274,-1.935546875,-2.845214844,-4.938964844,481,-479,337
3279,-1.933837891,-2.839111328,-4.938232422,480,-482,329
3284,-1.931884766,-2.843017578,-4.939697266,487,-471,317
3290,-1.934570313,-2.83984375,-4.941894531,481,-513,333
3295,-1.927978516,-2.840087891,-4.946777344,491,-514,343
3300,-1.928466797,-2.843505859,-4.932861328,477,-496,333
3305,-1.928955078,-2.840087891,-4.949707031,475,-475,333
3310,-1.932617188,-2.838623047,-4.942138672,461,-491,333
3315,-1.931884766,-2.84375,-4.935302734,494,-490,334
3320,-1.928955078,-2.839111328,-4.943115234,486,-495,336
3325,-1.929931641,-2.841064453,-4.940185547,489,-489,363
3330,-1.930419922,-2.841796875,-4.947021484,501,-493,330
3335,-1.934082031,-2.83984375,-4.945068359,486,-491,334
3340,-1.933349609,-2.841552734,-4.947265625,462,-488,323
3345,-1.932373047,-2.842041016,-4.940673828,469,-504,331
3350,-1.927001953,-2.844970703,-4.941162109,492,-483,355
3355,-1.9296875,-2.841796875,-4.940185547,474,-508,338
3360,-1.931884766,-2.83984375,-4.939453125,487,-501,335
3365,-1.930419922,-2.847167969,-4.944335938,486,-485,321
3370,-1.930908203,-2.838623047,-4.944091797,490,-484,336
3375,-1.935058594,-2.845458984,-4.942626953,503,-497,318
3380,-1.930664063,-2.845703125,-4.936767578,469,-489,351
3385,-1.931640625,-2.840820313,-4.935791016,479,-484,385
3390,-1.930175781,-2.840332031,-4.941162109,454,-493,327
3395,-1.930664063,-2.84375,-4.939208984,485,-507,345
3400,-1.932617188,-2.842529297,-4.947509766,472,-508,346
3405,-1.924316406,-2.844726563,-4.942871094,481,-484,348
3410,-1.930419922,-2.844482422,-4.9375,466,-490,325
3415,-1.933837891,-2.843505859,-4.941162109,469,-480,318
3420,-1.927734375,-2.841552734,-4.940917969,489,-497,348
3426,-1.930175781,-2.839111328,-4.937988281,482,-484,357
3431,-1.930175781,-2.841064453,-4.938964844,513,-478,320
3436,-1.928466797,-2.838378906,-4.948486328,497,-489,345
3441,-1.933837891,-2.842773438,-4.942871094,475,-488,340
3446,-1.936523438,-2.840332031,-4.939697266,490,-514,335
3451,-1.928222656,-2.843261719,-4.939941406,478,-509,332
3456,-1.928466797,-2.842285156,-4.939697266,466,-473,356
3461,-1.935302734,-2.84375,-4.937011719,485,-504,339
3466,-1.927246094,-2.842285156,-4.943359375,486,-481,336
3471,-1.929443359,-2.842285156,-4.940673828,467,-482,333
3476,-1.930664063,-2.843261719,-4.9453125,499,-503,337
3481,-1.930908203,-2.843017578,-4.941162109,483,-496,362
3486,-1.933105469,-2.841552734,-4.938964844,457,-479,337
3491,-1.9296875,-2.840820313,-4.946777344,468,-473,339
3496,-1.930419922,-2.843261719,-4.939208984,470,-505,325
3501,-1.933349609,-2.841308594,-4.944091797,477,-506,353
3506,-1.932373047,-2.841064453,-4.939697266,488,-495,354
3511,-1.931884766,-2.841796875,-4.940185547,494,-505,337
3516,-1.931640625,-2.842285156,-4.945800781,458,-496,344
3521,-1.931396484,-2.841064453,-4.937988281,486,-484,337
3526,-1.929199219,-2.841308594,-4.944580078,493,-473,342
3531,-1.932617188,-2.843261719,-4.948242188,471,-496,341
3536,-1.929443359,-2.838867188,-4.946289063,494,-496,318
3541,-1.935302734,-2.83984375,-4.939697266,460,-498,344
3546,-1.932373047,-2.841552734,-4.9375,474,-524,340
3551,-1.930419922,-2.843261719,-4.947753906,485,-506,340
3556,-1.930908203,-2.840087891,-4.939208984,474,-501,329
3562,-1.932617188,-2.843994141,-4.940673828,474,-480,333
3567,-1.933349609,-2.842529297,-4.94140625,489,-486,337
3572,-1.927978516,-2.844726563,-4.946777344,465,-492,346
3577,-1.932861328,-2.842285156,-4.941162109,470,-486,337
3582,-1.929931641,-2.839599609,-4.945556641,460,-507,336
3587,-1.932861328,-2.842041016,-4.940673828,502,-506,329
3592,-1.928710938,-2.839355469,-4.946289063,475,-516,339
3597,-1.932617188,-2.839111328,-4.93359375,473,-500,298
3602,-1.928955078,-2.840332031,-4.946777344,491,-481,331
3607,-1.929931641,-2.83984375,-4.944091797,495,-478,353
3612,-1.932617188,-2.841552734,-4.939697266,488,-492,329
3617,-1.93359375,-2.843994141,-4.942138672,473,-476,333
3622,-1.933837891,-2.842529297,-4.9375,465,-482,319
3627,-1.932617188,-2.842285156,-4.941894531,495,-501,305
3632,-1.929931641,-2.842285156,-4.944335938,476,-494,358
3637,-1.930664063,-2.842529297,-4.936523438,485,-483,345
3642,-1.929931641,-2.841796875,-4.941650391,459,-501,339
3647,-1.928466797,-2.841796875,-4.941894531,484,-491,350
3652,-1.929931641,-2.844970703,-4.943847656,481,-483,350
3657,-1.932128906,-2.841308594,-4.942138672,487,-486,328
3662,-1.928710938,-2.841796875,-4.934814453,477,-492,328
3667,-1.930419922,-2.841796875,-4.943115234,470,-495,341
3672,-1.934570313,-2.84375,-4.941650391,511,-479,330
3677,-1.928222656,-2.843017578,-4.944335938,481,-492,347
3682,-1.928955078,-2.842529297,-4.940673828,490,-496,339
3687,-1.926269531,-2.837890625,-4.940185547,482,-486,352
3692,-1.930419922,-2.842529297,-4.939208984,477,-504,319
3698,-1.932617188,-2.840087891,-4.947021484,486,-497,342
3703,-1.930664063,-2.843261719,-4.947509766,494,-502,342
3708,-1.928955078,-2.842529297,-4.938720703,461,-471,336
3713,-1.931884766,-2.839355469,-4.945068359,466,-484,313
3718,-1.9296875,-2.844970703,-4.942138672,477,-502,340
3723,-1.927001953,-2.843261719,-4.940673828,475,-466,316
3728,-1.93359375,-2.841064453,-4.938964844,488,-475,328
3733,-1.930664063,-2.841552734,-4.946289063,462,-506,320
3738,-1.930419922,-2.843017578,-4.942138672,509,-488,345
3743,-1.934814453,-2.836181641,-4.944580078,456,-482,334
3748,-1.934814453,-2.843017578,-4.943847656,473,-496,338
3753,-1.931884766,-2.838867188,-4.943603516,466,-499,334
3758,-1.929443359,-2.844970703,-4.948242188,475,-483,342
3763,-1.931152344,-2.83984375,-4.946289063,483,-481,324
3768,-1.927978516,-2.839355469,-4.940429688,471,-466,311
3773,-1.928710938,-2.844970703,-4.947753906,481,-481,323
3778,-1.931640625,-2.841552734,-4.943603516,468,-496,353
3783,-1.931152344,-2.842041016,-4.940917969,503,-496,327
3788,-1.929931641,-2.840332031,-4.939453125,480,-489,337
3793,-1.934814453,-2.837646484,-4.947265625,494,-491,351
3798,-1.9296875,-2.842041016,-4.936279297,482,-504,322
3803,-1.930908203,-2.841064453,-4.94140625,465,-474,332
3808,-1.928710938,-2.841064453,-4.945800781,486,-488,337
3813,-1.928955078,-2.841552734,-4.940185547,466,-485,333
3818,-1.937255859,-2.842285156,-4.939941406,477,-504,339
3823,-1.927246094,-2.842773438,-4.933349609,471,-478,344
3828,-1.927490234,-2.842285156,-4.940917969,493,-486,342
3834,-1.926513672,-2.843261719,-4.942138672,493,-492,349
3839,-1.925292969,-2.840087891,-4.943603516,467,-495,343
3844,-1.927978516,-2.844482422,-4.939208984,487,-502,332
3849,-1.936035156,-2.843261719,-4.947265625,486,-479,326
3854,-1.930908203,-2.843261719,-4.934326172,477,-490,348
3859,-1.932373047,-2.841064453,-4.936035156,474,-486,336
3864,-1.931640625,-2.842285156,-4.938720703,489,-519,366
3869,-1.927001953,-2.842285156,-4.94921875,486,-467,367
3874,-1.932128906,-2.844482422,-4.936035156,466,-506,334
3879,-1.928222656,-2.845214844,-4.940917969,483,-515,329
3884,-1.929443359,-2.840576172,-4.939941406,468,-500,348
3889,-1.926513672,-2.838623047,-4.94140625,473,-508,323
3894,-1.929199219,-2.839599609,-4.940185547,478,-513,329
3899,-1.927246094,-2.838867188,-4.9453125,505,-504,357
3904,-1.930175781,-2.83984375,-4.945556641,474,-468,357
3909,-1.93359375,-2.844482422,-4.933837891,494,-492,357
3914,-1.929931641,-2.841796875,-4.934082031,468,-503,322
3919,-1.930664063,-2.842285156,-4.94140625,476,-493,330
3924,-1.933837891,-2.846435547,-4.939453125,474,-497,344
3929,-1.931884766,-2.841064453,-4.943115234,506,-518,337
3934,-1.926757813,-2.841796875,-4.935302734,497,-516,341
3939,-1.933105469,-2.839111328,-4.940429688,484,-499,365
3944,-1.929443359,-2.842285156,-4.934814453,475,-464,349
3949,-1.934082031,-2.841796875,-4.939453125,475,-481,329
3954,-1.928955078,-2.839111328,-4.942626953,483,-481,334
3959,-1.931640625,-2.842041016,-4.943359375,462,-473,318
3964,-1.931884766,-2.844238281,-4.938232422,487,-491,337
3970,-1.92578125,-2.839355469,-4.937744141,480,-496,349
3975,-1.932617188,-2.842285156,-4.930175781,481,-474,355
3980,-1.931396484,-2.841552734,-4.939208984,495,-468,346
3985,-1.929443359,-2.840820313,-4.940917969,472,-489,322
3990,-1.930908203,-2.843261719,-4.933837891,454,-490,330
3995,-1.933349609,-2.846679688,-4.948974609,480,-498,292
4000,-1.927246094,-2.83984375,-4.939453125,478,-507,323
4005,-1.931152344,-2.845703125,-4.944580078,485,-497,310
4010,-1.932373047,-2.843017578,-4.940917969,475,-482,326
4015,-1.931884766,-2.843994141,-4.945556641,472,-484,325
4020,-1.9296875,-2.842529297,-4.9453125,469,-483,326
4025,-1.932128906,-2.84375,-4.947021484,503,-493,351
4030,-1.931640625,-2.841308594,-4.943115234,476,-475,313
4035,-1.931396484,-2.839355469,-4.936767578,464,-489,344
4040,-1.933837891,-2.838867188,-4.935791016,479,-510,347
4045,-1.932128906,-2.842773438,-4.939453125,487,-494,342
4050,-1.930664063,-2.840332031,-4.948242188,486,-498,312
4055,-1.934814453,-2.837890625,-4.932861328,468,-473,322
4060,-1.929199219,-2.842285156,-4.937988281,472,-481,335
4065,-1.927734375,-2.845703125,-4.944091797,489,-498,316
4070,-1.927734375,-2.845214844,-4.944824219,475,-499,339
4075,-1.931152344,-2.839111328,-4.938720703,469,-497,338
4080,-1.929931641,-2.840332031,-4.937255859,475,-478,332
4085,-1.932617188,-2.839599609,-4.942626953,503,-496,335
4090,-1.932861328,-2.841796875,-4.941894531,470,-507,346
4095,-1.9296875,-2.843261719,-4.938476563,491,-502,344
4100,-1.929199219,-2.842529297,-4.94140625,492,-509,344
4106,-1.930419922,-2.840332031,-4.938964844,491,-484,329
4111,-1.930908203,-2.843017578,-4.938476563,496,-511,328
4116,-1.932373047,-2.83984375,-4.939941406,468,-487,346
4121,-1.932617188,-2.839599609,-4.941650391,461,-494,344
4126,-1.932128906,-2.841552734,-4.938964844,496,-489,352
4131,-1.929443359,-2.840820313,-4.938232422,471,-499,311
4136,-1.934326172,-2.839111328,-4.941894531,483,-487,344
4141,-1.935058594,-2.842773438,-4.938964844,470,-481,330
4146,-1.928955078,-2.843505859,-4.942382813,483,-489,331
4151,-1.930908203,-2.838867188,-4.943847656,480,-498,343
4156,-1.927978516,-2.838623047,-4.940917969,488,-499,332
4161,-1.927246094,-2.840332031,-4.940185547,485,-496,340
4166,-1.930908203,-2.840332031,-4.942138672,476,-495,334
4171,-1.927490234,-2.840332031,-4.935546875,458,-507,334
4176,-1.930175781,-2.838867188,-4.941894531,466,-508,339
4181,-1.932373047,-2.844238281,-4.937988281,487,-511,334
4186,-1.92578125,-2.844238281,-4.941650391,480,-500,316
4191,-1.930664063,-2.841552734,-4.946044922,487,-506,322
4196,-1.932861328,-2.843017578,-4.937744141,482,-481,323
4201,-1.92578125,-2.841796875,-4.937988281,487,-509,334
4206,-1.9296875,-2.841064453,-4.935791016,476,-500,336
4211,-1.937011719,-2.847167969,-4.940673828,484,-498,349
4216,-1.934570313,-2.844238281,-4.936523438,485,-480,314
4221,-1.933105469,-2.840820313,-4.937011719,477,-514,353
4226,-1.932373047,-2.841064453,-4.942626953,476,-487,336
4231,-1.927978516,-2.83984375,-4.940429688,469,-492,312
4236,-1.930419922,-2.844482422,-4.937744141,468,-487,343
4242,-1.930908203,-2.841308594,-4.937988281,476,-490,339
4247,-1.930175781,-2.840576172,-4.943847656,484,-503,341
4252,-1.937011719,-2.839111328,-4.942871094,478,-484,333
4257,-1.931640625,-2.842285156,-4.938720703,474,-493,325
4262,-1.927978516,-2.841308594,-4.939941406,466,-488,357
4267,-1.932617188,-2.840087891,-4.940673828,502,-487,369
4272,-1.933349609,-2.843994141,-4.936523438,504,-487,335
4277,-1.933105469,-2.841552734,-4.937988281,487,-475,327
4282,-1.934082031,-2.842041016,-4.942626953,466,-493,329
4287,-1.926757813,-2.842773438,-4.944580078,474,-494,366
4292,-1.930908203,-2.840576172,-4.941650391,476,-497,321
4297,-1.934570313,-2.842041016,-4.943603516,474,-490,334
4302,-1.927734375,-2.842285156,-4.943359375,506,-503,336
4307,-1.932617188,-2.843505859,-4.945556641,479,-486,330
4312,-1.930175781,-2.840087891,-4.944580078,479,-509,318
4317,-1.929931641,-2.844482422,-4.944335938,483,-481,349
4322,-1.932128906,-2.843017578,-4.943359375,467,-484,324
4327,-1.929443359,-2.844482422,-4.936523438,485,-493,342
4332,-1.930175781,-2.839355469,-4.945068359,475,-514,328
4337,-1.928710938,-2.840820313,-4.943359375,474,-479,342
4342,-1.935302734,-2.843505859,-4.940917969,479,-487,348
4347,-1.928222656,-2.841308594,-4.943603516,483,-498,339
4352,-1.933105469,-2.843017578,-4.944824219,490,-484,347
4357,-1.936279297,-2.847167969,-4.938232422,497,-491,342
4362,-1.927246094,-2.841552734,-4.941894531,484,-491,311
4367,-1.928466797,-2.840576172,-4.938964844,488,-479,336
4372,-1.928955078,-2.839355469,-4.943847656,498,-512,313
4378,-1.930664063,-2.841796875,-4.947265625,474,-489,339
4383,-1.932617188,-2.83984375,-4.944824219,486,-505,341
4388,-1.937988281,-2.841064453,-4.938232422,484,-484,321
4393,-1.930419922,-2.843261719,-4.940185547,488,-513,316
4398,-1.934082031,-2.842529297,-4.936767578,477,-505,322
4403,-1.930419922,-2.844238281,-4.941650391,468,-512,335
4408,-1.925537109,-2.847167969,-4.941894531,489,-500,325
4413,-1.932128906,-2.839599609,-4.94140625,491,-491,342
4418,-1.930419922,-2.838134766,-4.946289063,498,-473,342
4423,-1.930908203,-2.841064453,-4.941650391,462,-499,346
4428,-1.93359375,-2.840332031,-4.941894531,491,-496,336
4433,-1.934570313,-2.843017578,-4.940917969,451,-480,341
4438,-1.930175781,-2.844482422,-4.94140625,479,-478,319
4443,-1.930664063,-2.842041016,-4.943359375,484,-497,329
4448,-1.934082031,-2.840820313,-4.946289063,509,-501,327
4453,-1.933837891,-2.83984375,-4.939208984,472,-518,327
4458,-1.935058594,-2.841308594,-4.936035156,468,-507,327
4463,-1.930175781,-2.838867188,-4.939697266,483,-502,345
4468,-1.93359375,-2.837890625,-4.943359375,473,-493,362
4473,-1.930908203,-2.844238281,-4.940429688,486,-490,315
4478,-1.930175781,-2.840332031,-4.937011719,479,-509,360
4483,-1.927978516,-2.840820313,-4.940185547,479,-482,353
4488,-1.927978516,-2.840576172,-4.936523438,489,-488,334
4493,-1.933837891,-2.838867188,-4.942138672,471,-473,333
4498,-1.930175781,-2.839355469,-4.94140625,491,-510,332
4503,-1.931640625,-2.841552734,-4.937744141,476,-509,343
4508,-1.932861328,-2.841308594,-4.937988281,474,-498,341
4514,-1.929931641,-2.841308594,-4.944335938,489,-515,328
4519,-1.934570313,-2.83984375,-4.934570313,479,-488,345
4524,-1.935791016,-2.845458984,-4.936523438,481,-484,324
4529,-1.930419922,-2.842773438,-4.945068359,485,-501,345
4534,-1.927978516,-2.841552734,-4.943115234,476,-485,321
4539,-1.928466797,-2.845458984,-4.946777344,484,-503,337
4544,-1.937011719,-2.842773438,-4.942871094,477,-497,323
4549,-1.932617188,-2.839355469,-4.943603516,473,-509,344
4554,-1.936035156,-2.843994141,-4.938232422,497,-493,326
4559,-1.934082031,-2.844970703,-4.936279297,500,-500,347
4564,-1.924072266,-2.840332031,-4.944335938,486,-481,361
4569,-1.934082031,-2.84375,-4.944580078,466,-495,327
4574,-1.928710938,-2.844726563,-4.929931641,499,-486,318
4579,-1.931396484,-2.841552734,-4.937011719,479,-489,328
4584,-1.932617188,-2.842041016,-4.938964844,470,-491,321
4589,-1.926513672,-2.83984375,-4.942138672,488,-497,345
4594,-1.931640625,-2.841796875,-4.943847656,469,-502,327
4599,-1.932128906,-2.840332031,-4.936767578,485,-512,321
4604,-1.930419922,-2.844482422,-4.943115234,471,-489,345
4609,-1.930419922,-2.842285156,-4.940429688,489,-506,345
4614,-1.932617188,-2.840820313,-4.946289063,478,-499,324
4619,-1.930419922,-2.83984375,-4.94140625,476,-474,333
4624,-1.929443359,-2.841796875,-4.940917969,504,-471,341
4629,-1.929931641,-2.841796875,-4.935058594,489,-494,333
4634,-1.924804688,-2.836425781,-4.942382813,462,-501,341
4639,-1.928222656,-2.843017578,-4.937988281,500,-505,340
4644,-1.9296875,-2.842041016,-4.932373047,490,-480,344
4650,-1.930419922,-2.843505859,-4.944824219,475,-505,336
4655,-1.930664063,-2.844726563,-4.936767578,472,-466,332
4660,-1.933105469,-2.842041016,-4.9375,479,-496,361
4665,-1.928466797,-2.841308594,-4.941894531,477,-490,347
4670,-1.928466797,-2.845703125,-4.945556641,472,-476,296
4675,-1.9375,-2.845214844,-4.937011719,488,-468,356
4680,-1.932617188,-2.842773438,-4.937011719,487,-501,352
4685,-1.933837891,-2.841308594,-4.939941406,493,-502,329
4690,-1.9296875,-2.842529297,-4.939697266,470,-496,365
4695,-1.928222656,-2.838134766,-4.943847656,470,-510,350
4700,-1.929931641,-2.840332031,-4.948242188,487,-492,362
4705,-1.931152344,-2.841796875,-4.941650391,462,-490,360
4710,-1.926757813,-2.841308594,-4.934814453,470,-488,342
4715,-1.929443359,-2.843017578,-4.946777344,487,-471,339
4720,-1.929443359,-2.842041016,-4.9375,471,-512,342
4725,-1.930175781,-2.844482422,-4.937011719,488,-492,317
4730,-1.928222656,-2.842773438,-4.939453125,484,-491,312
4735,-1.930175781,-2.842285156,-4.943603516,475,-494,329
4740,-1.925537109,-2.842285156,-4.944580078,484,-476,328
4745,-1.932617188,-2.839599609,-4.940429688,477,-485,350
4750,-1.930664063,-2.83984375,-4.939208984,500,-488,370
4755,-1.933105469,-2.840820313,-4.936767578,478,-505,331
4760,-1.936523438,-2.839599609,-4.944091797,465,-498,354
4765,-1.927734375,-2.844482422,-4.939208984,482,-476,334
4770,-1.928955078,-2.844726563,-4.946044922,484,-466,332
4775,-1.930419922,-2.845214844,-4.937744141,465,-498,323
4780,-1.927001953,-2.840820313,-4.948242188,462,-492,355
4786,-1.929931641,-2.842041016,-4.940673828,477,-487,336
4791,-1.934570313,-2.843017578,-4.937255859,483,-473,325
4796,-1.927734375,-2.84375,-4.940917969,462,-497,348
4801,-1.928955078,-2.841552734,-4.940673828,459,-498,341
4806,-1.931640625,-2.841796875,-4.944580078,484,-489,318
4811,-1.932373047,-2.840576172,-4.9375,497,-474,339
4816,-1.933349609,-2.840332031,-4.937011719,485,-491,324
4821,-1.932617188,-2.846191406,-4.935302734,486,-472,321
4826,-1.931640625,-2.843505859,-4.943359375,469,-510,334
4831,-1.926757813,-2.842285156,-4.940917969,472,-491,345
4836,-1.933105469,-2.841308594,-4.938720703,461,-516,338
4841,-1.923828125,-2.837646484,-4.938720703,467,-498,331
4846,-1.930175781,-2.837402344,-4.943603516,476,-500,328
4851,-1.933349609,-2.843017578,-4.936035156,473,-505,332
4856,-1.932373047,-2.843261719,-4.945068359,470,-501,336
4861,-1.932861328,-2.842041016,-4.938964844,494,-492,329
4866,-1.928955078,-2.840332031,-4.941162109,486,-478,328
4871,-1.931396484,-2.846679688,-4.943115234,486,-529,330
4876,-1.926025391,-2.840332031,-4.941894531,476,-483,326
4881,-1.928955078,-2.845458984,-4.939208984,474,-511,341
4886,-1.929443359,-2.844238281,-4.941894531,483,-489,332
4891,-1.931884766,-2.844238281,-4.941650391,480,-504,332
4896,-1.932861328,-2.839355469,-4.938964844,474,-492,323
4901,-1.928466797,-2.841308594,-4.943115234,466,-485,349
4906,-1.933105469,-2.845947266,-4.94140625,498,-489,350
4911,-1.931884766,-2.842285156,-4.945068359,482,-463,323
4916,-1.926513672,-2.844238281,-4.939941406,481,-491,334
4922,-1.931396484,-2.841552734,-4.940185547,507,-501,333
4927,-1.929199219,-2.838623047,-4.941650391,466,-475,349
4932,-1.929443359,-2.840820313,-4.942382813,486,-492,360
4937,-1.931396484,-2.841064453,-4.941894531,473,-505,317
4942,-1.929199219,-2.840576172,-4.944580078,475,-483,335
4947,-1.931884766,-2.842773438,-4.939697266,487,-499,368
4952,-1.928466797,-2.84375,-4.941162109,474,-492,335
4957,-1.934326172,-2.845458984,-4.94140625,479,-497,336
4962,-1.932861328,-2.840332031,-4.942138672,469,-488,330
4967,-1.931396484,-2.844726563,-4.936279297,490,-511,349
4972,-1.930664063,-2.842285156,-4.937011719,490,-493,345
4977,-1.927734375,-2.844970703,-4.937011719,470,-512,347
4982,-1.926513672,-2.84375,-4.943847656,459,-476,344
4987,-1.932617188,-2.845703125,-4.944580078,465,-484,354
4992,-1.934814453,-2.843505859,-4.939453125,484,-494,332
4997,-1.926513672,-2.842041016,-4.943847656,460,-484,349
5002,-1.931396484,-2.840820313,-4.936279297,500,-484,332
5007,-1.929199219,-2.84375,-4.943115234,488,-486,339
5012,-1.928710938,-2.843994141,-4.934814453,460,-500,347
5017,-1.935546875,-2.844970703,-4.947021484,481,-478,352
5022,-1.933105469,-2.844970703,-4.947021484,500,-504,307
5027,-1.927734375,-2.840576172,-4.941650391,492,-493,347
5032,-1.928955078,-2.843994141,-4.943115234,473,-506,335
5037,-1.931884766,-2.843505859,-4.933837891,465,-488,361
5042,-1.929443359,-2.842529297,-4.944091797,485,-475,336
5047,-1.929199219,-2.842041016,-4.946044922,467,-495,321
5052,-1.931152344,-2.841796875,-4.937744141,482,-494,346
5058,-1.934082031,-2.840332031,-4.935546875,486,-485,325
5063,-1.933837891,-2.844482422,-4.938720703,478,-524,346
5068,-1.931640625,-2.842773438,-4.939208984,497,-484,344
5073,-1.931640625,-2.841308594,-4.940673828,486,-501,316
5078,-1.930908203,-2.842285156,-4.942626953,475,-489,349
5083,-1.927001953,-2.83984375,-4.938964844,473,-490,331
5088,-1.932861328,-2.844482422,-4.940673828,478,-476,333
5093,-1.932373047,-2.843994141,-4.941894531,491,-495,325
5098,-1.929931641,-2.843505859,-4.944335938,476,-483,325
5103,-1.929199219,-2.836181641,-4.939453125,472,-484,342
5108,-1.935791016,-2.839111328,-4.936035156,467,-508,350
5113,-1.929199219,-2.841552734,-4.937744141,474,-512,334
5118,-1.932128906,-2.844726563,-4.940917969,491,-495,361
5123,-1.931396484,-2.843261719,-4.939941406,495,-484,322
5128,-1.929199219,-2.836669922,-4.940429688,487,-493,344
5133,-1.935302734,-2.842285156,-4.943847656,489,-492,346
5138,-1.935058594,-2.840576172,-4.939697266,462,-498,332
5143,-1.927734375,-2.844726563,-4.942626953,463,-478,347
5148,-1.926757813,-2.83984375,-4.940673828,479,-510,337
5153,-1.931396484,-2.842041016,-4.933349609,473,-486,340
5158,-1.9296875,-2.840332031,-4.943115234,498,-503,334
5163,-1.935058594,-2.843261719,-4.950683594,479,-471,338
5168,-1.928955078,-2.845947266,-4.937011719,459,-492,357
5173,-1.929443359,-2.841796875,-4.943359375,471,-485,358
5178,-1.935058594,-2.839111328,-4.943603516,477,-520,330
5183,-1.930419922,-2.840087891,-4.938964844,477,-466,333
5188,-1.9296875,-2.842285156,-4.939208984,478,-486,346
5194,-1.935546875,-2.842041016,-4.939208984,495,-506,349
5199,-1.933105469,-2.837158203,-4.940673828,473,-510,332
5204,-1.927490234,-2.840087891,-4.939208984,489,-494,337
5209,-1.928710938,-2.842041016,-4.947753906,476,-497,332
5214,-1.929931641,-2.841064453,-4.935302734,490,-471,313
5219,-1.930908203,-2.84375,-4.944091797,483,-494,338
5224,-1.935546875,-2.843505859,-4.944091797,495,-486,307
5229,-1.931640625,-2.836669922,-4.9453125,472,-503,333
5234,-1.930175781,-2.840820313,-4.944091797,490,-474,343
5239,-1.936767578,-2.843017578,-4.933837891,490,-485,356
5244,-1.927978516,-2.83984375,-4.937988281,453,-494,340
5249,-1.928955078,-2.842529297,-4.944824219,477,-508,362
5254,-1.935546875,-2.841064453,-4.9453125,478,-489,342
5259,-1.926269531,-2.844726563,-4.942626953,492,-514,361
5264,-1.931396484,-2.842529297,-4.941894531,477,-497,333
5269,-1.929443359,-2.841796875,-4.935546875,471,-475,334
5274,-1.930908203,-2.840332031,-4.943603516,479,-475,356
5279,-1.924804688,-2.842529297,-4.943603516,460,-496,338
5284,-1.934082031,-2.841064453,-4.941162109,485,-501,376
5289,-1.934082031,-2.842285156,-4.941162109,496,-484,346
5294,-1.930908203,-2.840332031,-4.939697266,481,-498,330
5299,-1.933105469,-2.841308594,-4.937011719,474,-498,331
5304,-1.933105469,-2.848632813,-4.94921875,496,-496,313
5309,-1.926513672,-2.840820313,-4.938232422,476,-480,341
5314,-1.927978516,-2.842773438,-4.942626953,495,-486,345
5319,-1.930419922,-2.842285156,-4.935058594,478,-485,341
5324,-1.932861328,-2.839599609,-4.942626953,469,-481,330
5330,-1.930419922,-2.84765625,-4.943847656,463,-457,312
5335,-1.9296875,-2.838867188,-4.944824219,486,-475,345
5340,-1.928955078,-2.841308594,-4.942382813,501,-512,332
5345,-1.931152344,-2.83984375,-4.937011719,480,-486,351
5350,-1.930419922,-2.840332031,-4.939453125,476,-499,345
5355,-1.931640625,-2.844726563,-4.944824219,489,-517,329
5360,-1.933837891,-2.841552734,-4.939208984,481,-503,329
5365,-1.932373047,-2.841796875,-4.940429688,504,-525,329
5370,-1.931640625,-2.844238281,-4.944091797,495,-520,348
5375,-1.932128906,-2.838623047,-4.940917969,484,-488,334
5380,-1.927490234,-2.837646484,-4.934326172,473,-474,332
5385,-1.93359375,-2.841552734,-4.942871094,492,-492,327
5390,-1.934326172,-2.841308594,-4.939453125,464,-479,327
5395,-1.930175781,-2.838867188,-4.940429688,490,-491,336
5400,-1.931396484,-2.840087891,-4.937988281,494,-472,333
5405,-1.930419922,-2.845214844,-4.944580078,492,-504,346
5410,-1.929443359,-2.841064453,-4.946044922,468,-498,332
5415,-1.931884766,-2.840332031,-4.946289063,474,-480,312
5420,-1.932861328,-2.842529297,-4.937011719,480,-480,343
5425,-1.934814453,-2.843505859,-4.939453125,489,-478,324
5430,-1.929931641,-2.844482422,-4.942626953,485,-503,342
5435,-1.9296875,-2.842529297,-4.942871094,479,-481,349
5440,-1.928955078,-2.841064453,-4.938720703,474,-501,349
5445,-1.92578125,-2.839599609,-4.942382813,483,-491,329
5450,-1.928466797,-2.840087891,-4.942871094,468,-503,365
5455,-1.930664063,-2.843505859,-4.943603516,482,-467,333
5460,-1.931884766,-2.844482422,-4.936523438,477,-483,345
5466,-1.932373047,-2.845458984,-4.9453125,498,-477,332
5471,-1.931396484,-2.844970703,-4.937988281,486,-483,310
5476,-1.929931641,-2.843261719,-4.941650391,498,-470,325
5481,-1.932861328,-2.840332031,-4.941894531,472,-498,322
5486,-1.930419922,-2.841552734,-4.940917969,483,-480,344
5491,-1.931884766,-2.841064453,-4.940673828,476,-477,346
5496,-1.933105469,-2.843994141,-4.940917969,492,-497,345
5501,-1.930419922,-2.843261719,-4.946289063,479,-489,344
5506,-1.927490234,-2.846923828,-4.941894531,505,-499,338
5511,-1.932128906,-2.842529297,-4.9453125,455,-467,347
5516,-1.930908203,-2.839599609,-4.942871094,510,-502,344
5521,-1.930175781,-2.844482422,-4.936279297,467,-499,335
5526,-1.927978516,-2.841796875,-4.947021484,460,-481,340
5531,-1.932128906,-2.843505859,-4.940429688,478,-470,337
5536,-1.931640625,-2.837646484,-4.942871094,474,-476,345
5541,-1.932373047,-2.839355469,-4.934814453,470,-492,353
5546,-1.928466797,-2.843994141,-4.944824219,501,-503,324
5551,-1.928222656,-2.841064453,-4.939941406,475,-514,336
5556,-1.931152344,-2.842041016,-4.941650391,491,-496,313
5561,-1.931884766,-2.840576172,-4.943847656,468,-502,334
5566,-1.931396484,-2.840087891,-4.941650391,490,-477,300
5571,-1.934814453,-2.846923828,-4.938232422,472,-482,336
5576,-1.930908203,-2.841308594,-4.94140625,482,-472,338
5581,-1.929443359,-2.842285156,-4.942626953,479,-492,329
5586,-1.931396484,-2.83984375,-4.941650391,483,-491,324
5591,-1.930175781,-2.840332031,-4.943115234,488,-486,326
5596,-1.934082031,-2.843017578,-4.944091797,495,-477,332
5602,-1.936523438,-2.841308594,-4.937744141,493,-512,329
5607,-1.929931641,-2.842285156,-4.943115234,492,-472,340
5612,-1.931396484,-2.83984375,-4.936767578,480,-496,324
5617,-1.929443359,-2.841552734,-4.938476563,474,-477,324
5622,-1.928466797,-2.843017578,-4.940185547,470,-456,349
5627,-1.935546875,-2.837890625,-4.94140625,471,-481,380
5632,-1.931396484,-2.841308594,-4.938964844,480,-495,316
5637,-1.926513672,-2.842041016,-4.944335938,477,-490,318
5642,-1.930175781,-2.839355469,-4.939453125,474,-463,324
5647,-1.930908203,-2.838623047,-4.940673828,480,-510,327
5652,-1.931640625,-2.840820313,-4.946289063,471,-506,341
5657,-1.9375,-2.839599609,-4.946289063,493,-491,345
5662,-1.931640625,-2.844726563,-4.940185547,471,-499,316
5667,-1.932373047,-2.841308594,-4.931640625,486,-468,313
5672,-1.932373047,-2.844482422,-4.947753906,482,-472,335
5677,-1.927978516,-2.842285156,-4.940185547,460,-477,336
5682,-1.927001953,-2.840087891,-4.942626953,476,-483,328
5687,-1.932617188,-2.841552734,-4.9453125,485,-483,355
5692,-1.933349609,-2.83984375,-4.9375,473,-513,340
5697,-1.934326172,-2.838867188,-4.945068359,472,-511,355
5702,-1.93359375,-2.843261719,-4.9375,478,-487,345
5707,-1.932128906,-2.839599609,-4.937988281,456,-495,344
5712,-1.931152344,-2.840820313,-4.940429688,471,-477,345
5717,-1.935791016,-2.838623047,-4.938964844,486,-497,342
5722,-1.931884766,-2.843505859,-4.942382813,478,-493,339
5727,-1.927734375,-2.843994141,-4.934814453,483,-487,331
5732,-1.932861328,-2.841552734,-4.943847656,461,-484,344
5738,-1.930175781,-2.841064453,-4.944580078,479,-503,338
5743,-1.924560547,-2.842285156,-4.942382813,478,-487,350
5748,-1.928466797,-2.838867188,-4.937988281,480,-509,330
5753,-1.928710938,-2.841064453,-4.944580078,486,-500,344
5758,-1.935546875,-2.842285156,-4.9453125,466,-476,331
5763,-1.933105469,-2.838867188,-4.937744141,474,-468,330
5768,-1.934082031,-2.844970703,-4.942871094,475,-471,334
5773,-1.932128906,-2.842529297,-4.940185547,481,-484,338
5778,-1.929443359,-2.843994141,-4.935058594,485,-494,315
5783,-1.922607422,-2.842529297,-4.946289063,480,-484,345
5788,-1.927978516,-2.840087891,-4.945068359,483,-503,331
5793,-1.931396484,-2.841552734,-4.945556641,482,-496,332
5798,-1.930419922,-2.842285156,-4.943603516,477,-492,346
5803,-1.931884766,-2.841796875,-4.940429688,462,-492,331
5808,-1.929931641,-2.842041016,-4.934570313,492,-471,321
5813,-1.932617188,-2.834472656,-4.947265625,482,-494,342
5818,-1.929931641,-2.842773438,-4.94921875,490,-487,336
5823,-1.930664063,-2.841308594,-4.942871094,482,-490,329
5828,-1.934326172,-2.843261719,-4.943603516,498,-485,345
5833,-1.927734375,-2.843017578,-4.9453125,460,-482,329
5838,-1.933837891,-2.842285156,-4.943115234,501,-505,307
5843,-1.930175781,-2.839599609,-4.937255859,481,-511,336
5848,-1.928955078,-2.840820313,-4.940429688,485,-482,327
5853,-1.925048828,-2.842773438,-4.937744141,485,-486,329
5858,-1.929931641,-2.839355469,-4.939697266,467,-496,342
5863,-1.932373047,-2.83984375,-4.94140625,474,-475,333
5868,-1.934326172,-2.844238281,-4.944580078,475,-472,324
5874,-1.935302734,-2.845458984,-4.942871094,475,-486,318
5879,-1.928710938,-2.838378906,-4.935791016,480,-507,337
5884,-1.932861328,-2.841552734,-4.942626953,476,-497,351
5889,-1.926757813,-2.840820313,-4.943359375,469,-487,342
5894,-1.930908203,-2.840087891,-4.940917969,460,-493,336
5899,-1.932861328,-2.844970703,-4.943359375,482,-507,317
5904,-1.927978516,-2.838378906,-4.948730469,490,-484,326
5909,-1.927246094,-2.844482422,-4.943115234,472,-496,333
5914,-1.933837891,-2.845214844,-4.942382813,468,-482,362
5919,-1.928955078,-2.845458984,-4.951416016,469,-499,339
5924,-1.926513672,-2.842529297,-4.942382813,482,-492,335
5929,-1.932861328,-2.837890625,-4.936523438,489,-498,368
5934,-1.934326172,-2.842041016,-4.938964844,517,-501,325
5939,-1.931640625,-2.83984375,-4.937011719,467,-515,344
5944,-1.934570313,-2.842773438,-4.941650391,459,-463,344
5949,-1.9296875,-2.842529297,-4.942382813,491,-468,340
5954,-1.932128906,-2.842041016,-4.941894531,481,-476,324
5959,-1.936523438,-2.842041016,-4.945800781,490,-478,341
5964,-1.931152344,-2.841552734,-4.943115234,488,-472,365
5969,-1.934082031,-2.843017578,-4.948242188,491,-513,358
5974,-1.935058594,-2.840087891,-4.942382813,473,-478,331
5979,-1.927490234,-2.843505859,-4.938964844,479,-460,328
5984,-1.931396484,-2.841308594,-4.937744141,489,-490,335
5989,-1.929199219,-2.844482422,-4.949707031,450,-494,352
5994,-1.923583984,-2.843017578,-4.941894531,484,-490,325
5999,-1.934082031,-2.839355469,-4.940917969,504,-492,325
6004,-1.936523438,-2.841552734,-4.939697266,468,-487,352
6010,-1.930664063,-2.842041016,-4.942626953,473,-493,342
6015,-1.931884766,-2.841552734,-4.942382813,476,-479,325
6020,-1.928955078,-2.836181641,-4.938476563,503,-514,369
6025,-1.929443359,-2.840820313,-4.941162109,490,-485,344
6030,-1.929443359,-2.844726563,-4.943115234,486,-490,323
6035,-1.931640625,-2.842285156,-4.946289063,476,-486,312
6040,-1.929931641,-2.842285156,-4.939453125,484,-475,320
6045,-1.930419922,-2.838623047,-4.941650391,486,-467,330
6050,-1.932373047,-2.841064453,-4.939453125,484,-461,352
6055,-1.934082031,-2.841064453,-4.937988281,482,-485,326
6060,-1.929931641,-2.843994141,-4.937011719,481,-478,349
6065,-1.934570313,-2.843261719,-4.940917969,489,-512,338
6070,-1.934814453,-2.840332031,-4.935302734,476,-488,339
6075,-1.931152344,-2.843505859,-4.943359375,475,-510,341
6080,-1.930908203,-2.841796875,-4.938720703,481,-503,334
6085,-1.927978516,-2.843994141,-4.935546875,485,-495,357
6090,-1.930175781,-2.839355469,-4.940185547,485,-513,331
6095,-1.927978516,-2.842041016,-4.93359375,473,-472,349
6100,-1.930908203,-2.843994141,-4.943603516,480,-488,315
6105,-1.935302734,-2.839599609,-4.940673828,490,-507,344
6110,-1.931152344,-2.841796875,-4.947998047,493,-501,349
6115,-1.927978516,-2.837890625,-4.935058594,472,-468,349
6120,-1.927734375,-2.841796875,-4.937744141,471,-504,330
6125,-1.927246094,-2.845947266,-4.940917969,462,-491,339
6130,-1.934082031,-2.841796875,-4.939453125,482,-475,335
6135,-1.932617188,-2.842041016,-4.939208984,478,-505,314
6140,-1.932373047,-2.839355469,-4.949462891,490,-497,333
6146,-1.927978516,-2.843505859,-4.939453125,484,-484,338
6151,-1.933105469,-2.844970703,-4.947265625,506,-499,327
6156,-1.930419922,-2.845458984,-4.936035156,473,-510,319
6161,-1.933349609,-2.840820313,-4.946777344,502,-489,329
6166,-1.934082031,-2.841064453,-4.948974609,479,-491,357
6171,-1.928466797,-2.842285156,-4.943359375,465,-485,355
6176,-1.936279297,-2.840087891,-4.940429688,481,-502,327
6181,-1.931640625,-2.841308594,-4.940429688,486,-487,350
6186,-1.933349609,-2.839599609,-4.945556641,511,-494,317
6191,-1.928710938,-2.844482422,-4.94140625,465,-481,320
6196,-1.934082031,-2.840576172,-4.945800781,485,-509,349
6201,-1.935058594,-2.837646484,-4.942626953,504,-490,346
6206,-1.929199219,-2.844238281,-4.943359375,474,-512,357
6211,-1.927978516,-2.842041016,-4.937011719,487,-497,340
6216,-1.931640625,-2.840576172,-4.936767578,488,-509,331
6221,-1.926513672,-2.842285156,-4.945800781,484,-499,332
6226,-1.928222656,-2.843017578,-4.944335938,457,-483,341
6231,-1.930908203,-2.842041016,-4.938720703,457,-474,359
6236,-1.933105469,-2.84765625,-4.944335938,488,-487,320
6241,-1.930419922,-2.839355469,-4.94140625,486,-492,353
6246,-1.933349609,-2.843505859,-4.940673828,476,-486,330
6251,-1.935058594,-2.845947266,-4.942871094,485,-503,335
6256,-1.930175781,-2.838378906,-4.942382813,483,-497,316
6261,-1.933105469,-2.839355469,-4.939453125,474,-505,342
6266,-1.930175781,-2.841796875,-4.942382813,463,-486,347
6271,-1.927734375,-2.841064453,-4.944824219,501,-506,350
6276,-1.931396484,-2.838378906,-4.939697266,474,-483,348
6282,-1.930664063,-2.844238281,-4.938964844,489,-482,347
6287,-1.927246094,-2.842773438,-4.939941406,478,-477,309
6292,-1.929931641,-2.845458984,-4.942382813,465,-483,323
6297,-1.927001953,-2.840087891,-4.944091797,475,-509,330
6302,-1.931640625,-2.843017578,-4.9375,471,-480,329
6307,-1.935058594,-2.841308594,-4.936279297,456,-502,343
6312,-1.931396484,-2.840087891,-4.943115234,488,-491,344
6317,-1.935058594,-2.838134766,-4.945800781,476,-502,320
6322,-1.931152344,-2.842285156,-4.944824219,475,-495,342
6327,-1.928955078,-2.841064453,-4.947265625,464,-509,347
6332,-1.930908203,-2.844482422,-4.942626953,499,-491,332
6337,-1.928955078,-2.838623047,-4.940429688,478,-479,337
6342,-1.932128906,-2.840820313,-4.936767578,464,-456,332
6347,-1.931396484,-2.846435547,-4.94140625,480,-479,326
6352,-1.928710938,-2.840332031,-4.942382813,462,-478,332
6357,-1.928466797,-2.841796875,-4.940917969,481,-519,331
6362,-1.931884766,-2.842773438,-4.940429688,475,-501,343
6367,-1.9296875,-2.844482422,-4.932373047,488,-503,329
6372,-1.927490234,-2.841308594,-4.943115234,478,-480,342
6377,-1.933837891,-2.838378906,-4.938232422,467,-475,343
6382,-1.932617188,-2.845458984,-4.9375,495,-477,339
6387,-1.928466797,-2.843017578,-4.94921875,475,-452,342
6392,-1.930664063,-2.842041016,-4.941162109,465,-484,338
6397,-1.932128906,-2.842041016,-4.939697266,499,-501,359
6402,-1.930908203,-2.841796875,-4.943847656,476,-502,327
6407,-1.92578125,-2.840087891,-4.940429688,489,-483,314
6412,-1.925292969,-2.841308594,-4.943359375,473,-501,340
6418,-1.929199219,-2.841064453,-4.941650391,485,-496,343
6423,-1.934570313,-2.843261719,-4.943359375,468,-499,342
6428,-1.933105469,-2.842285156,-4.940429688,484,-484,345
6433,-1.928710938,-2.843017578,-4.936523438,486,-495,324
6438,-1.935791016,-2.838623047,-4.947021484,481,-494,328
6443,-1.932617188,-2.844726563,-4.94140625,501,-481,338
6448,-1.927490234,-2.843261719,-4.939453125,487,-479,341
6453,-1.933105469,-2.843505859,-4.936523438,477,-514,341
6458,-1.927490234,-2.836425781,-4.943847656,479,-500,324
6463,-1.932373047,-2.841552734,-4.941894531,500,-502,340
6468,-1.936767578,-2.843505859,-4.938720703,492,-499,324
6473,-1.931640625,-2.839355469,-4.9375,513,-492,335
6478,-1.929931641,-2.841308594,-4.937255859,479,-480,357
6483,-1.934570313,-2.839599609,-4.9375,487,-480,352
6488,-1.925537109,-2.840332031,-4.943603516,467,-503,347
6493,-1.932373047,-2.841552734,-4.937255859,467,-489,327
6498,-1.931396484,-2.841796875,-4.939453125,465,-484,335
6503,-1.928466797,-2.844482422,-4.940185547,488,-503,301
6508,-1.934326172,-2.840576172,-4.938964844,490,-490,338
6513,-1.93359375,-2.844970703,-4.934570313,476,-487,341
6518,-1.928955078,-2.844726563,-4.948242188,480,-498,352
6523,-1.929931641,-2.83984375,-4.942626953,491,-493,329
6528,-1.933105469,-2.839355469,-4.943115234,482,-496,337
6533,-1.93359375,-2.844970703,-4.941650391,488,-471,349
6538,-1.932128906,-2.842285156,-4.935302734,485,-494,351
6543,-1.928466797,-2.838623047,-4.941650391,484,-493,341
6548,-1.929443359,-2.843994141,-4.934082031,475,-506,330
6554,-1.930175781,-2.837890625,-4.929199219,481,-528,337
6559,-1.932617188,-2.841064453,-4.9453125,487,-505,340
6564,-1.934326172,-2.842285156,-4.947021484,494,-492,339
6569,-1.932128906,-2.841308594,-4.938232422,480,-487,334
6574,-1.934326172,-2.844726563,-4.940429688,468,-470,317
6579,-1.926513672,-2.842773438,-4.946289063,469,-490,319
6584,-1.931152344,-2.841308594,-4.940673828,465,-481,356
6589,-1.927490234,-2.842529297,-4.935791016,460,-490,363
6594,-1.930419922,-2.842529297,-4.9375,479,-503,328
6599,-1.932617188,-2.840087891,-4.941650391,486,-497,347
6604,-1.930175781,-2.841552734,-4.942382813,474,-497,312
6609,-1.930908203,-2.842773438,-4.951416016,485,-503,351
6614,-1.930175781,-2.842041016,-4.944091797,470,-477,344
6619,-1.932861328,-2.842041016,-4.946533203,506,-470,352
6624,-1.928222656,-2.838867188,-4.941650391,477,-483,337
6629,-1.931152344,-2.842773438,-4.940429688,496,-477,346
6634,-1.931640625,-2.840820313,-4.941650391,477,-485,354
6639,-1.928955078,-2.841552734,-4.938720703,474,-524,341
6644,-1.934814453,-2.840576172,-4.942871094,455,-499,328
6649,-1.929931641,-2.839599609,-4.943603516,476,-483,346
6654,-1.928710938,-2.839355469,-4.942382813,501,-507,319
6659,-1.929199219,-2.844482422,-4.939941406,491,-508,337
6664,-1.931396484,-2.841552734,-4.943847656,478,-448,322
6669,-1.931152344,-2.837402344,-4.942138672,495,-491,313
6674,-1.9296875,-2.841064453,-4.938476563,459,-485,330
6679,-1.932373047,-2.842773438,-4.938720703,494,-489,321
6684,-1.930908203,-2.839355469,-4.9375,493,-496,346
6690,-1.923095703,-2.840332031,-4.949462891,475,-501,336
6695,-1.928955078,-2.841064453,-4.9453125,489,-500,344
6700,-1.928222656,-2.842041016,-4.942382813,487,-482,344
6705,-1.927978516,-2.842529297,-4.938964844,469,-482,334
6710,-1.935546875,-2.841064453,-4.939697266,486,-478,331
6715,-1.9296875,-2.846679688,-4.939697266,473,-514,335
6720,-1.927001953,-2.838378906,-4.943359375,470,-476,340
6725,-1.929931641,-2.838378906,-4.941894531,489,-505,341
6730,-1.931396484,-2.840820313,-4.937011719,475,-495,358
6735,-1.935302734,-2.840820313,-4.941894531,494,-521,359
6740,-1.932373047,-2.845947266,-4.939697266,470,-490,331
6745,-1.931640625,-2.83984375,-4.943359375,487,-502,347
6750,-1.931396484,-2.840332031,-4.935058594,482,-493,334
6755,-1.9296875,-2.840576172,-4.935302734,486,-477,352
6760,-1.925292969,-2.840087891,-4.94140625,493,-489,337
6765,-1.931396484,-2.841796875,-4.940917969,485,-496,344
6770,-1.934814453,-2.841552734,-4.945800781,478,-488,310
6775,-1.931640625,-2.840332031,-4.939697266,489,-463,333
6780,-1.93359375,-2.841064453,-4.94140625,467,-475,340
6785,-1.931396484,-2.844482422,-4.938964844,483,-476,325
6790,-1.927734375,-2.843261719,-4.941894531,474,-503,342
6795,-1.924560547,-2.844238281,-4.940917969,481,-470,325
6800,-1.933105469,-2.837890625,-4.940917969,490,-501,355
6805,-1.930908203,-2.844238281,-4.94140625,477,-478,326
6810,-1.929443359,-2.841064453,-4.945556641,472,-506,318
6815,-1.932373047,-2.842773438,-4.9375,498,-484,308
6820,-1.929443359,-2.839599609,-4.938232422,495,-470,332
6826,-1.929443359,-2.838867188,-4.944580078,471,-508,350
6831,-1.930908203,-2.841552734,-4.942382813,486,-508,336
6836,-1.929931641,-2.841064453,-4.939453125,476,-492,331
6841,-1.934326172,-2.838378906,-4.940673828,476,-476,314
6846,-1.930175781,-2.842529297,-4.942871094,486,-489,312
6851,-1.925048828,-2.844482422,-4.940917969,480,-480,343
6856,-1.931396484,-2.841308594,-4.940673828,484,-482,321
6861,-1.927978516,-2.841308594,-4.951660156,494,-474,349
6866,-1.930175781,-2.843505859,-4.937011719,480,-485,334
6871,-1.9296875,-2.843261719,-4.944091797,470,-463,311
6876,-1.927734375,-2.842529297,-4.94140625,455,-494,338
6881,-1.928466797,-2.848632813,-4.935058594,470,-482,311
6886,-1.928466797,-2.839355469,-4.94140625,476,-481,327
6891,-1.928222656,-2.842041016,-4.944580078,492,-495,337
6896,-1.933349609,-2.842773438,-4.939453125,477,-495,327
6901,-1.932128906,-2.843017578,-4.944580078,472,-484,325
6906,-1.931640625,-2.839599609,-4.9453125,482,-495,332
6911,-1.934570313,-2.838623047,-4.934570313,487,-497,352
6916,-1.930664063,-2.842529297,-4.943115234,486,-511,349
6921,-1.927246094,-2.843505859,-4.945556641,480,-496,342
6926,-1.931884766,-2.839111328,-4.945800781,477,-497,349
6931,-1.929199219,-2.844238281,-4.935546875,469,-484,357
6936,-1.930908203,-2.839111328,-4.946533203,488,-488,350
6941,-1.928710938,-2.842041016,-4.944580078,481,-501,329
6946,-1.93359375,-2.842529297,-4.946777344,489,-494,336
6951,-1.929931641,-2.84375,-4.940917969,487,-506,332
6956,-1.930175781,-2.838623047,-4.938476563,480,-479,367
6962,-1.932128906,-2.844238281,-4.936279297,469,-497,331
6967,-1.929931641,-2.842285156,-4.939697266,474,-486,324
6972,-1.930419922,-2.840576172,-4.942871094,492,-507,343
6977,-1.932861328,-2.840087891,-4.94140625,499,-486,306
6982,-1.932373047,-2.843505859,-4.943115234,471,-475,331
6987,-1.931884766,-2.84375,-4.941650391,459,-522,340
6992,-1.931152344,-2.838623047,-4.942871094,479,-490,329
6997,-1.928466797,-2.845458984,-4.942871094,466,-495,360
7002,-1.926757813,-2.841064453,-4.944824219,492,-490,321
7007,-1.929199219,-2.838867188,-4.936767578,489,-474,342
7012,-1.929931641,-2.843994141,-4.942382813,492,-487,329
7017,-1.930175781,-2.838134766,-4.942626953,477,-497,338
7022,-1.931640625,-2.842773438,-4.937988281,468,-501,329
7027,-1.925537109,-2.838623047,-4.942871094,484,-490,322
7032,-1.932617188,-2.842041016,-4.944091797,480,-503,351
7037,-1.934326172,-2.842285156,-4.947753906,501,-478,347
7042,-1.933837891,-2.843994141,-4.937011719,480,-486,319
7047,-1.931396484,-2.843017578,-4.939941406,484,-486,368
7052,-1.932128906,-2.845458984,-4.939208984,484,-502,334
7057,-1.932373047,-2.838623047,-4.944335938,466,-486,344
7062,-1.928955078,-2.843261719,-4.942871094,480,-509,348
7067,-1.934814453,-2.843505859,-4.935791016,460,-508,348
7072,-1.928466797,-2.842041016,-4.947509766,478,-490,356
7077,-1.93359375,-2.840087891,-4.936035156,487,-493,327
7082,-1.9375,-2.844238281,-4.939941406,501,-500,350
7087,-1.929443359,-2.841796875,-4.942871094,495,-465,321
7092,-1.9296875,-2.840820313,-4.939941406,469,-497,332
7098,-1.935302734,-2.842529297,-4.940917969,467,-482,354
7103,-1.927001953,-2.842285156,-4.938720703,494,-507,321
7108,-1.928222656,-2.845947266,-4.944091797,480,-515,338
7113,-1.933105469,-2.842773438,-4.942138672,491,-495,327
7118,-1.929199219,-2.843261719,-4.944580078,482,-494,333
7123,-1.929931641,-2.844238281,-4.94140625,469,-512,344
7128,-1.931152344,-2.84375,-4.940917969,500,-491,356
7133,-1.935546875,-2.840820313,-4.943359375,476,-480,322
7138,-1.932617188,-2.842285156,-4.94140625,482,-475,342
7143,-1.934814453,-2.842041016,-4.94140625,477,-497,360
7148,-1.930908203,-2.840576172,-4.944091797,483,-486,336
7153,-1.930419922,-2.844726563,-4.945556641,488,-499,336
7158,-1.929931641,-2.840576172,-4.939453125,492,-480,330
7163,-1.930664063,-2.843261719,-4.946533203,460,-485,341
7168,-1.929443359,-2.840332031,-4.938720703,486,-526,333
7173,-1.931152344,-2.838378906,-4.942382813,476,-494,353
7178,-1.931396484,-2.844482422,-4.941162109,474,-489,336
7183,-1.934326172,-2.838867188,-4.939941406,504,-483,346
7188,-1.930908203,-2.840576172,-4.941162109,477,-476,330
7193,-1.929443359,-2.841308594,-4.930419922,472,-490,356
7198,-1.927246094,-2.842285156,-4.937011719,470,-467,330
7203,-1.933105469,-2.839599609,-4.937011719,483,-496,344
7208,-1.928466797,-2.842773438,-4.934570313,483,-492,365
7213,-1.933105469,-2.837646484,-4.93359375,481,-509,329
7218,-1.933837891,-2.842041016,-4.937988281,469,-478,337
7223,-1.926025391,-2.845214844,-4.940917969,486,-478,338
7228,-1.931884766,-2.842041016,-4.935791016,474,-479,317
7234,-1.933349609,-2.841552734,-4.9375,481,-495,352
7239,-1.930664063,-2.838623047,-4.938964844,489,-492,335
7244,-1.930419922,-2.839599609,-4.937744141,466,-488,327
7249,-1.933349609,-2.837890625,-4.938232422,488,-485,319
7254,-1.922851563,-2.836181641,-4.941162109,504,-500,322
7259,-1.933105469,-2.838867188,-4.943359375,504,-498,358
7264,-1.930419922,-2.842285156,-4.946533203,486,-474,352
7269,-1.930664063,-2.843261719,-4.940917969,478,-503,358
7274,-1.932128906,-2.842773438,-4.940917969,500,-489,341
7279,-1.932128906,-2.840087891,-4.936767578,473,-478,357
7284,-1.927734375,-2.842773438,-4.941650391,493,-500,362
7289,-1.931396484,-2.842041016,-4.938964844,472,-501,328
7294,-1.931152344,-2.84375,-4.938964844,475,-497,340
7299,-1.928466797,-2.839355469,-4.939697266,486,-487,354
7304,-1.928466797,-2.839599609,-4.940429688,489,-505,330
7309,-1.927490234,-2.841796875,-4.940673828,473,-486,332
7314,-1.928466797,-2.84375,-4.939941406,508,-494,343
7319,-1.929199219,-2.841796875,-4.940917969,485,-478,335
7324,-1.93359375,-2.839599609,-4.939453125,462,-483,342
7329,-1.930908203,-2.843017578,-4.9375,482,-486,321
7334,-1.931152344,-2.84375,-4.938232422,487,-479,334
7339,-1.932373047,-2.842041016,-4.947998047,490,-490,330
7344,-1.929199219,-2.842041016,-4.934570313,465,-498,335
7349,-1.934326172,-2.842041016,-4.94140625,497,-504,357
7354,-1.927490234,-2.838134766,-4.943847656,474,-487,340
7359,-1.924316406,-2.841796875,-4.944824219,481,-499,348
7364,-1.930175781,-2.842773438,-4.940429688,466,-493,333
7370,-1.931884766,-2.84375,-4.941894531,483,-449,356
7375,-1.927490234,-2.842285156,-4.941894531,482,-488,323
7380,-1.932861328,-2.83984375,-4.935791016,462,-466,352
7385,-1.930175781,-2.840820313,-4.9453125,496,-495,340
7390,-1.930664063,-2.844482422,-4.944335938,476,-502,341
7395,-1.930419922,-2.841796875,-4.942626953,492,-481,335
7400,-1.926025391,-2.83984375,-4.940917969,490,-506,311
7405,-1.929199219,-2.838867188,-4.946777344,479,-502,326
7410,-1.931152344,-2.839355469,-4.938476563,490,-488,313
7415,-1.931396484,-2.839599609,-4.936035156,478,-488,334
7420,-1.933105469,-2.844970703,-4.937011719,484,-494,357
7425,-1.933349609,-2.834960938,-4.942626953,468,-491,338
7430,-1.928222656,-2.842773438,-4.946289063,493,-485,341
7435,-1.932617188,-2.840576172,-4.945068359,473,-490,331
7440,-1.929931641,-2.840576172,-4.940185547,483,-476,354
7445,-1.934082031,-2.842773438,-4.936035156,481,-480,353
7450,-1.930908203,-2.837646484,-4.936035156,471,-518,331
7455,-1.928222656,-2.838134766,-4.94140625,463,-473,327
7460,-1.930419922,-2.842041016,-4.944580078,479,-491,348
7465,-1.928466797,-2.844238281,-4.940917969,478,-504,347
7470,-1.933837891,-2.840820313,-4.9453125,485,-474,360
7475,-1.935546875,-2.840820313,-4.943847656,498,-515,348
7480,-1.933349609,-2.842285156,-4.944091797,480,-501,333
7485,-1.929443359,-2.841064453,-4.938964844,498,-492,325
7490,-1.932617188,-2.840820313,-4.943847656,470,-483,357
7495,-1.930908203,-2.841552734,-4.947753906,475,-473,310
7500,-1.928710938,-2.840087891,-4.940917969,468,-508,345
7506,-1.932373047,-2.840820313,-4.944091797,487,-471,329
7511,-1.933837891,-2.841308594,-4.945800781,490,-502,325
7516,-1.931884766,-2.837890625,-4.946044922,486,-497,349
7521,-1.934570313,-2.840820313,-4.938964844,476,-487,311
7526,-1.928955078,-2.843017578,-4.940185547,479,-506,355
7531,-1.929443359,-2.842529297,-4.939453125,492,-502,341
7536,-1.931152344,-2.842041016,-4.938232422,494,-489,354
7541,-1.92578125,-2.841552734,-4.944335938,487,-484,350
7546,-1.932861328,-2.845214844,-4.937011719,487,-498,336
7551,-1.928955078,-2.838378906,-4.939208984,473,-489,326
7556,-1.927978516,-2.841552734,-4.941894531,468,-505,322
7561,-1.928222656,-2.840332031,-4.936279297,483,-475,330
7566,-1.934570313,-2.841796875,-4.939697266,477,-478,353
7571,-1.933837891,-2.841308594,-4.947509766,478,-500,317
7576,-1.936035156,-2.843994141,-4.941650391,498,-485,330
7581,-1.932373047,-2.843261719,-4.940673828,479,-497,348
7586,-1.928222656,-2.841796875,-4.938232422,486,-489,334
7591,-1.933349609,-2.842529297,-4.937744141,453,-473,367
7596,-1.931884766,-2.841796875,-4.940185547,480,-504,338
7601,-1.924804688,-2.838623047,-4.945800781,480,-494,341
7606,-1.932128906,-2.842773438,-4.939697266,474,-492,347
7611,-1.931396484,-2.841308594,-4.939453125,462,-459,334
7616,-1.932617188,-2.843261719,-4.94140625,489,-496,356
7621,-1.932128906,-2.836914063,-4.948974609,488,-472,340
7626,-1.9296875,-2.842041016,-4.946289063,467,-480,325
7631,-1.934082031,-2.843261719,-4.940673828,471,-491,327
7636,-1.932373047,-2.83984375,-4.935058594,502,-497,330
7642,-1.927490234,-2.840820313,-4.948486328,498,-493,348
7647,-1.930908203,-2.842773438,-4.939208984,459,-509,322
7652,-1.929931641,-2.846435547,-4.933837891,495,-509,365
7657,-1.925048828,-2.840820313,-4.9375,465,-488,343
7662,-1.931884766,-2.840820313,-4.943115234,482,-476,329
7667,-1.932617188,-2.841308594,-4.930664063,465,-501,331
7672,-1.93359375,-2.841796875,-4.938232422,467,-497,339
7677,-1.932373047,-2.842041016,-4.940917969,467,-463,339
7682,-1.935546875,-2.843261719,-4.9453125,488,-473,324
7687,-1.931640625,-2.83984375,-4.941894531,476,-508,348
7692,-1.931396484,-2.839599609,-4.944335938,480,-509,340
7697,-1.935791016,-2.84375,-4.943115234,470,-499,351
7702,-1.923339844,-2.842529297,-4.943115234,483,-488,350
7707,-1.929931641,-2.841796875,-4.937255859,475,-475,352
7712,-1.933837891,-2.842773438,-4.941650391,490,-487,325
7717,-1.927734375,-2.843994141,-4.940917969,489,-488,320
7722,-1.934570313,-2.843994141,-4.944824219,483,-463,334
7727,-1.927490234,-2.843505859,-4.935058594,489,-497,338
7732,-1.928466797,-2.841552734,-4.940185547,479,-483,326
7737,-1.928222656,-2.83984375,-4.946044922,490,-486,346
7742,-1.933349609,-2.841552734,-4.940429688,479,-486,359
7747,-1.929199219,-2.840820313,-4.938720703,473,-502,364
7752,-1.929199219,-2.840576172,-4.94921875,487,-469,341
7757,-1.932617188,-2.843017578,-4.937744141,474,-489,343
7762,-1.931640625,-2.840332031,-4.942138672,497,-479,332
7767,-1.932617188,-2.844726563,-4.941650391,476,-496,339
7772,-1.934326172,-2.839355469,-4.940917969,475,-480,347
7778,-1.932373047,-2.842041016,-4.939453125,483,-471,335
7783,-1.933105469,-2.840576172,-4.944091797,475,-500,346
7788,-1.930664063,-2.843017578,-4.935546875,465,-489,336
7793,-1.930908203,-2.842041016,-4.940185547,472,-502,330
7798,-1.931640625,-2.839355469,-4.944091797,462,-476,319
7803,-1.93359375,-2.83984375,-4.936035156,484,-499,315
7808,-1.926757813,-2.842041016,-4.942382813,473,-500,316
7813,-1.932128906,-2.841064453,-4.946533203,459,-493,306
7818,-1.932128906,-2.84375,-4.942138672,483,-504,336
7823,-1.930175781,-2.839599609,-4.936035156,461,-466,346
7828,-1.9296875,-2.842773438,-4.943115234,487,-496,336
7833,-1.928955078,-2.841064453,-4.946289063,487,-500,347
7838,-1.931884766,-2.844238281,-4.939453125,478,-494,349
7843,-1.930419922,-2.840087891,-4.949462891,473,-496,347
7848,-1.931884766,-2.843261719,-4.939453125,478,-476,351
7853,-1.928955078,-2.840576172,-4.940917969,482,-492,344
7858,-1.930908203,-2.841064453,-4.940917969,481,-480,320
7863,-1.931640625,-2.837158203,-4.941894531,474,-462,326
7868,-1.926757813,-2.842529297,-4.939941406,467,-492,341
7873,-1.932861328,-2.842773438,-4.940917969,486,-509,318
7878,-1.930419922,-2.842285156,-4.944580078,488,-470,312
7883,-1.930908203,-2.843017578,-4.939453125,489,-483,325
7888,-1.935302734,-2.840576172,-4.934082031,489,-480,337
7893,-1.934570313,-2.841796875,-4.933837891,488,-503,338
7898,-1.927246094,-2.842285156,-4.942626953,459,-486,356
7903,-1.9296875,-2.840576172,-4.945800781,489,-472,348
7908,-1.930419922,-2.843261719,-4.942138672,505,-501,340
7914,-1.934814453,-2.843017578,-4.943359375,475,-495,332
7919,-1.928466797,-2.839355469,-4.93359375,500,-495,336
7924,-1.927001953,-2.841552734,-4.939208984,489,-498,329
7929,-1.931640625,-2.844482422,-4.944335938,478,-510,323
7934,-1.934814453,-2.842285156,-4.943847656,491,-490,354
7939,-1.930175781,-2.841308594,-4.940673828,467,-493,316
7944,-1.927734375,-2.840087891,-4.9375,472,-492,358
7949,-1.934082031,-2.844726563,-4.936767578,487,-492,337
7954,-1.932373047,-2.836181641,-4.941650391,474,-496,354
7959,-1.93359375,-2.841796875,-4.943115234,476,-476,339
7964,-1.927978516,-2.83984375,-4.940429688,460,-500,342
7969,-1.931396484,-2.842041016,-4.941650391,463,-504,351
7974,-1.934326172,-2.841308594,-4.94140625,475,-470,362
7979,-1.931884766,-2.83984375,-4.9375,465,-480,347
7984,-1.934326172,-2.841064453,-4.937011719,471,-487,353
7989,-1.926513672,-2.842529297,-4.948242188,452,-533,352
7994,-1.932617188,-2.841064453,-4.935546875,463,-489,338
7999,-1.930419922,-2.842041016,-4.939697266,482,-480,329
8004,-1.928222656,-2.841552734,-4.938720703,488,-470,334
8009,-1.932128906,-2.839599609,-4.939208984,482,-500,335
8014,-1.929443359,-2.838867188,-4.937744141,471,-503,334
8019,-1.930175781,-2.840820313,-4.943115234,481,-505,342
8024,-1.932617188,-2.84375,-4.936767578,481,-516,338
8029,-1.931884766,-2.843261719,-4.936767578,469,-491,335
8034,-1.926513672,-2.83984375,-4.9453125,491,-479,351
8039,-1.931152344,-2.841308594,-4.939208984,474,-472,341
8044,-1.934814453,-2.843017578,-4.937255859,491,-479,343
8049,-1.931152344,-2.837402344,-4.939941406,499,-516,344
8055,-1.930175781,-2.839599609,-4.936035156,482,-502,332
8060,-1.933837891,-2.841064453,-4.942871094,475,-488,344
8065,-1.927978516,-2.842529297,-4.939941406,484,-499,342
8070,-1.931640625,-2.844726563,-4.945800781,491,-506,336
8075,-1.931396484,-2.842773438,-4.949707031,471,-475,324
8080,-1.927246094,-2.839599609,-4.9375,486,-494,336
8085,-1.934082031,-2.837158203,-4.939453125,483,-505,331
8090,-1.932373047,-2.838623047,-4.944580078,478,-471,367
8095,-1.930908203,-2.839599609,-4.932617188,458,-479,351
8100,-1.935058594,-2.842773438,-4.936523438,475,-495,334
8105,-1.928710938,-2.838867188,-4.938720703,471,-494,344
8110,-1.931396484,-2.840576172,-4.937255859,473,-496,343
8115,-1.93359375,-2.841308594,-4.935791016,481,-513,339
8120,-1.9296875,-2.841308594,-4.940917969,482,-499,334
8125,-1.930908203,-2.841064453,-4.945556641,472,-490,354
8130,-1.928710938,-2.845458984,-4.939453125,483,-485,322
8135,-1.9296875,-2.840820313,-4.941162109,485,-467,344
8140,-1.929931641,-2.842773438,-4.938964844,485,-470,324
8145,-1.932128906,-2.84375,-4.94140625,474,-480,342
8150,-1.932617188,-2.843994141,-4.937011719,475,-483,339
8155,-1.931152344,-2.838134766,-4.938476563,495,-484,326
8160,-1.931884766,-2.841552734,-4.931884766,495,-492,357
8165,-1.931396484,-2.840087891,-4.944091797,473,-496,340
8170,-1.929931641,-2.840332031,-4.943847656,476,-511,345
8175,-1.934814453,-2.842773438,-4.943115234,476,-499,346
8180,-1.930664063,-2.841064453,-4.94140625,498,-482,345
8185,-1.932128906,-2.841308594,-4.944580078,489,-493,340
8191,-1.933349609,-2.842285156,-4.936035156,476,-479,319
8196,-1.9296875,-2.837402344,-4.945068359,477,-502,325
8201,-1.928955078,-2.838378906,-4.940673828,488,-472,340
8206,-1.932617188,-2.842041016,-4.938476563,502,-490,341
8211,-1.932861328,-2.842041016,-4.94140625,490,-501,326
8216,-1.931640625,-2.837402344,-4.943115234,495,-483,336
8221,-1.931640625,-2.842773438,-4.939941406,470,-524,347
8226,-1.932861328,-2.843505859,-4.943603516,479,-500,340
8231,-1.931640625,-2.842285156,-4.939208984,474,-491,327
8236,-1.934814453,-2.841308594,-4.941650391,483,-490,350
8241,-1.928955078,-2.846191406,-4.942871094,481,-496,346
8246,-1.927978516,-2.842529297,-4.941650391,503,-483,326
8251,-1.927001953,-2.838623047,-4.9453125,482,-506,333
8256,-1.928955078,-2.841552734,-4.945800781,479,-495,337
8261,-1.931396484,-2.841064453,-4.941162109,460,-497,329
8266,-1.927490234,-2.845458984,-4.937988281,482,-512,341
8271,-1.931396484,-2.844726563,-4.944335938,495,-494,326
8276,-1.933349609,-2.845703125,-4.937744141,487,-492,327
8281,-1.932617188,-2.841064453,-4.943115234,492,-496,343
8286,-1.929199219,-2.840576172,-4.939697266,469,-491,345
8291,-1.929199219,-2.841064453,-4.937255859,478,-489,341
8296,-1.932617188,-2.842041016,-4.938720703,480,-478,330
8301,-1.931884766,-2.841064453,-4.940917969,475,-488,332
8306,-1.927490234,-2.840332031,-4.939453125,492,-481,334
8311,-1.930664063,-2.841796875,-4.936035156,476,-478,351
8316,-1.930664063,-2.844970703,-4.942626953,492,-515,332
8321,-1.930908203,-2.842529297,-4.939697266,470,-505,363
8327,-1.931152344,-2.842773438,-4.941894531,479,-473,333
8332,-1.926757813,-2.843261719,-4.941894531,476,-477,317
8337,-1.926757813,-2.841064453,-4.944091797,488,-506,320
8342,-1.933349609,-2.840087891,-4.938476563,487,-482,348
8347,-1.926513672,-2.843261719,-4.945556641,474,-494,350
8352,-1.934326172,-2.841308594,-4.935546875,480,-502,311
8357,-1.931884766,-2.844970703,-4.940917969,483,-485,321
8362,-1.933837891,-2.840820313,-4.9375,468,-519,342
8367,-1.930175781,-2.842529297,-4.944824219,504,-501,331
8372,-1.928955078,-2.841064453,-4.939453125,453,-481,330
8377,-1.929443359,-2.841796875,-4.929199219,479,-498,325
8382,-1.930419922,-2.842041016,-4.942382813,483,-470,327
8387,-1.935302734,-2.841552734,-4.937255859,471,-489,358
8392,-1.930419922,-2.84375,-4.944335938,459,-492,337
8397,-1.925048828,-2.841796875,-4.938720703,492,-476,354
8402,-1.932861328,-2.836669922,-4.940429688,485,-483,340
8407,-1.927490234,-2.840087891,-4.94140625,478,-488,338
8412,-1.9296875,-2.844726563,-4.938232422,496,-479,307
8417,-1.929931641,-2.842041016,-4.945068359,482,-489,351
8422,-1.930175781,-2.846679688,-4.941162109,482,-508,331
8427,-1.929199219,-2.842041016,-4.943115234,495,-492,321
8432,-1.935546875,-2.838623047,-4.937988281,476,-487,325
8437,-1.927978516,-2.842773438,-4.939697266,485,-493,362
8442,-1.926757813,-2.844238281,-4.936767578,477,-496,336
8447,-1.931884766,-2.837890625,-4.942382813,465,-477,353
8452,-1.927490234,-2.838623047,-4.935791016,482,-516,340
8457,-1.931396484,-2.843261719,-4.940429688,491,-492,321
8463,-1.934326172,-2.837890625,-4.939208984,486,-501,326
8468,-1.926757813,-2.840087891,-4.942138672,493,-496,349
8473,-1.934570313,-2.841064453,-4.935546875,483,-505,345
8478,-1.930664063,-2.840576172,-4.947265625,479,-490,325
8483,-1.928466797,-2.843017578,-4.941894531,474,-490,327
8488,-1.932861328,-2.848144531,-4.942871094,483,-473,336
8493,-1.928955078,-2.844970703,-4.942626953,464,-522,366
8498,-1.92578125,-2.841064453,-4.943115234,476,-473,340
8503,-1.930419922,-2.83984375,-4.944824219,486,-491,342
8508,-1.929443359,-2.841796875,-4.947509766,470,-484,344
8513,-1.9296875,-2.844970703,-4.937255859,459,-491,347
8518,-1.934814453,-2.839355469,-4.941650391,475,-470,341
8523,-1.931396484,-2.839111328,-4.944335938,476,-499,342
8528,-1.928222656,-2.840332031,-4.945800781,485,-489,328
8533,-1.934326172,-2.840087891,-4.944091797,460,-487,357
8538,-1.930908203,-2.841552734,-4.946533203,484,-486,347
8543,-1.9296875,-2.842773438,-4.941650391,481,-508,360
8548,-1.931640625,-2.839599609,-4.944091797,469,-504,327
8553,-1.929931641,-2.841064453,-4.943359375,479,-455,345
8558,-1.928222656,-2.843994141,-4.941650391,491,-493,342
8563,-1.933349609,-2.841552734,-4.9453125,471,-482,341
8568,-1.927246094,-2.843994141,-4.942138672,472,-496,343
8573,-1.932617188,-2.844726563,-4.942138672,467,-474,333
8578,-1.931396484,-2.840332031,-4.946533203,457,-471,339
8583,-1.933105469,-2.842773438,-4.941894531,479,-485,350
8588,-1.931640625,-2.845458984,-4.935791016,491,-487,331
8593,-1.931640625,-2.841796875,-4.941162109,492,-502,330
8599,-1.933837891,-2.843505859,-4.940185547,476,-509,329
8604,-1.928710938,-2.837646484,-4.933349609,482,-454,337
8609,-1.931396484,-2.840820313,-4.939941406,471,-511,318
8614,-1.930419922,-2.842529297,-4.947021484,482,-494,311
8619,-1.929443359,-2.844726563,-4.948730469,480,-490,338
8624,-1.934082031,-2.840576172,-4.943847656,479,-510,335
8629,-1.931152344,-2.839111328,-4.937011719,491,-475,335
8634,-1.928955078,-2.843994141,-4.943603516,479,-480,342
8639,-1.929931641,-2.842529297,-4.936767578,485,-465,332
8644,-1.930908203,-2.84375,-4.943115234,482,-500,322
8649,-1.927490234,-2.839111328,-4.946044922,484,-505,345
8654,-1.930419922,-2.845458984,-4.930664063,478,-509,336
8659,-1.930175781,-2.842529297,-4.944091797,473,-484,345
8664,-1.930908203,-2.839111328,-4.9453125,486,-499,334
8669,-1.932861328,-2.842773438,-4.941650391,473,-490,338
8674,-1.928955078,-2.845458984,-4.937744141,466,-483,331
8679,-1.930175781,-2.842773438,-4.941162109,480,-487,309
8684,-1.933105469,-2.840087891,-4.941162109,480,-489,338
8689,-1.932128906,-2.840576172,-4.947265625,475,-493,348
8694,-1.928955078,-2.843505859,-4.947509766,482,-483,334
8699,-1.928955078,-2.842285156,-4.942626953,471,-488,332
8704,-1.930419922,-2.842529297,-4.942626953,488,-489,321
8709,-1.931396484,-2.842529297,-4.945800781,497,-489,319
8714,-1.934082031,-2.841796875,-4.940429688,482,-484,338
8719,-1.933837891,-2.843505859,-4.945068359,473,-514,335
8724,-1.932128906,-2.841796875,-4.939697266,480,-480,324
8729,-1.931152344,-2.838623047,-4.939208984,462,-481,324
8735,-1.927001953,-2.840820313,-4.941650391,497,-472,342
8740,-1.929931641,-2.843261719,-4.937011719,486,-517,321
8745,-1.931884766,-2.843994141,-4.941162109,495,-459,325
8750,-1.930908203,-2.840087891,-4.942382813,475,-499,337
8755,-1.932128906,-2.842529297,-4.939208984,494,-495,321
8760,-1.936279297,-2.843261719,-4.937011719,482,-505,368
8765,-1.927490234,-2.847900391,-4.943359375,475,-478,336
8770,-1.927734375,-2.843505859,-4.943359375,461,-501,354
8775,-1.935546875,-2.843261719,-4.938720703,468,-494,328
8780,-1.931640625,-2.846435547,-4.940673828,472,-492,336
8785,-1.927734375,-2.838378906,-4.940429688,482,-491,374
8790,-1.932128906,-2.846923828,-4.940917969,483,-483,328
8795,-1.930419922,-2.843261719,-4.942138672,466,-471,339
8800,-1.925048828,-2.846435547,-4.937011719,479,-495,329
8805,-1.928222656,-2.841552734,-4.936279297,486,-509,357
8810,-1.931396484,-2.840820313,-4.947509766,488,-495,331
8815,-1.926757813,-2.841308594,-4.946777344,492,-487,357
8820,-1.930419922,-2.840820313,-4.940429688,462,-494,352
8825,-1.929931641,-2.843017578,-4.938476563,509,-499,333
8830,-1.931396484,-2.843994141,-4.940917969,479,-483,321
8835,-1.93359375,-2.843261719,-4.937255859,493,-500,323
8840,-1.927246094,-2.841308594,-4.940673828,486,-496,345
8845,-1.928955078,-2.842529297,-4.945800781,482,-501,317
8850,-1.930908203,-2.842041016,-4.944335938,494,-464,333
8855,-1.925292969,-2.846435547,-4.947753906,491,-486,340
8860,-1.932373047,-2.843017578,-4.942871094,461,-498,317
8865,-1.928710938,-2.842529297,-4.940673828,477,-504,317
8871,-1.928466797,-2.842529297,-4.940429688,484,-481,341
8876,-1.931396484,-2.840820313,-4.933105469,484,-502,323
8881,-1.930175781,-2.842041016,-4.938476563,485,-511,354
8886,-1.930908203,-2.840332031,-4.938964844,498,-493,333
8891,-1.933349609,-2.838867188,-4.941162109,460,-493,336
8896,-1.931396484,-2.839355469,-4.947021484,472,-482,326
8901,-1.930175781,-2.840820313,-4.943847656,477,-495,322
8906,-1.927490234,-2.844970703,-4.932373047,465,-471,333
8911,-1.932617188,-2.843017578,-4.940429688,477,-485,321
8916,-1.927734375,-2.841308594,-4.944580078,482,-458,329
8921,-1.929443359,-2.837646484,-4.932373047,487,-524,325
8926,-1.936523438,-2.842285156,-4.935546875,489,-515,317
8931,-1.930664063,-2.843017578,-4.940673828,504,-494,330
8936,-1.934326172,-2.839111328,-4.938964844,474,-483,320
8941,-1.931884766,-2.846923828,-4.937011719,476,-502,328
8946,-1.929199219,-2.841308594,-4.94140625,461,-474,341
8951,-1.932128906,-2.841796875,-4.943603516,476,-476,323
8956,-1.935058594,-2.846679688,-4.937988281,485,-473,323
8961,-1.926513672,-2.840087891,-4.945556641,484,-524,359
8966,-1.931640625,-2.842773438,-4.947998047,499,-503,341
8971,-1.927490234,-2.841064453,-4.942871094,489,-521,300
8976,-1.929443359,-2.842773438,-4.937255859,485,-505,335
8981,-1.929443359,-2.842773438,-4.944824219,465,-500,321
8986,-1.933837891,-2.843261719,-4.937744141,504,-482,327
8991,-1.930664063,-2.842773438,-4.935791016,485,-483,334
8996,-1.933837891,-2.837890625,-4.935546875,461,-481,324
9001,-1.929931641,-2.841552734,-4.942626953,498,-502,349
9007,-1.933105469,-2.845214844,-4.944335938,481,-502,348
9012,-1.929931641,-2.844238281,-4.942138672,478,-516,311
9017,-1.932861328,-2.840087891,-4.941650391,474,-482,337
9022,-1.932128906,-2.845214844,-4.940917969,497,-509,336
9027,-1.933105469,-2.842285156,-4.944580078,504,-501,338
9032,-1.926757813,-2.845947266,-4.942871094,473,-499,346
9037,-1.924072266,-2.843505859,-4.941162109,485,-503,314
9042,-1.932373047,-2.845458984,-4.939453125,491,-467,348
9047,-1.925537109,-2.843505859,-4.947509766,486,-479,343
9052,-1.930664063,-2.841552734,-4.935546875,496,-496,337
9057,-1.933105469,-2.843505859,-4.940185547,461,-482,324
9062,-1.932128906,-2.841552734,-4.940917969,482,-491,329
9067,-1.931884766,-2.841552734,-4.947021484,487,-477,339
9072,-1.9296875,-2.843994141,-4.943115234,496,-500,343
9077,-1.929931641,-2.841308594,-4.943359375,488,-501,343
9082,-1.933349609,-2.842529297,-4.939697266,475,-493,349
9087,-1.929443359,-2.843017578,-4.944824219,475,-489,339
9092,-1.932861328,-2.843261719,-4.941162109,482,-491,342
9097,-1.931396484,-2.842529297,-4.938964844,475,-496,345
9102,-1.930419922,-2.838867188,-4.937744141,480,-491,323
9107,-1.9296875,-2.837158203,-4.939941406,490,-496,349
9112,-1.927978516,-2.842041016,-4.944091797,466,-488,348
9117,-1.9296875,-2.83984375,-4.932373047,467,-500,328
9122,-1.932373047,-2.843017578,-4.934326172,507,-481,341
9127,-1.932128906,-2.845214844,-4.942626953,481,-468,348
9132,-1.929199219,-2.841064453,-4.943847656,458,-503,332
9137,-1.927246094,-2.843505859,-4.940429688,480,-499,332
9143,-1.930908203,-2.844238281,-4.935791016,489,-482,319
9148,-1.928466797,-2.838134766,-4.940185547,486,-490,349
9153,-1.929443359,-2.84375,-4.940917969,508,-481,324
9158,-1.930664063,-2.841064453,-4.937744141,488,-490,335
9163,-1.928222656,-2.842773438,-4.946289063,476,-490,335
9168,-1.929199219,-2.842041016,-4.933837891,493,-494,327
9173,-1.929931641,-2.843017578,-4.939697266,457,-476,349
9178,-1.930419922,-2.843505859,-4.947509766,479,-487,317
9183,-1.932373047,-2.838623047,-4.944335938,474,-491,331
9188,-1.931640625,-2.840576172,-4.935546875,468,-487,320
9193,-1.93359375,-2.842285156,-4.942626953,478,-470,346
9198,-1.93359375,-2.845458984,-4.938964844,482,-495,361
9203,-1.927490234,-2.843017578,-4.937988281,481,-483,344
9208,-1.928222656,-2.846435547,-4.936035156,475,-486,323
9213,-1.931152344,-2.840576172,-4.941894531,488,-476,330
9218,-1.927734375,-2.84375,-4.944824219,477,-472,342
9223,-1.929443359,-2.841552734,-4.938720703,482,-490,319
9228,-1.929931641,-2.844482422,-4.942871094,478,-489,334
9233,-1.931640625,-2.841064453,-4.946533203,478,-502,356
9238,-1.930664063,-2.842773438,-4.939208984,484,-478,336
9243,-1.931396484,-2.843505859,-4.9453125,495,-483,343
9248,-1.928710938,-2.842285156,-4.945556641,490,-482,360
9253,-1.931396484,-2.845703125,-4.938232422,465,-495,340
9258,-1.936767578,-2.841308594,-4.935302734,485,-500,346
9263,-1.927001953,-2.843017578,-4.938476563,499,-507,339
9268,-1.933349609,-2.843017578,-4.941650391,485,-491,359
9273,-1.935058594,-2.840576172,-4.939208984,497,-507,357
9279,-1.927734375,-2.842285156,-4.937988281,480,-488,348
9284,-1.9296875,-2.840332031,-4.937255859,482,-493,342
9289,-1.930908203,-2.846435547,-4.942382813,491,-509,336
9294,-1.927490234,-2.842773438,-4.944824219,466,-492,358
9299,-1.935302734,-2.839111328,-4.938476563,487,-471,340
9304,-1.928710938,-2.840576172,-4.937255859,473,-495,362
9309,-1.930419922,-2.841796875,-4.939697266,477,-491,323
9314,-1.932861328,-2.843017578,-4.941650391,491,-488,354
9319,-1.933105469,-2.843505859,-4.938964844,482,-487,341
9324,-1.9296875,-2.843261719,-4.940185547,481,-489,315
9329,-1.933837891,-2.843261719,-4.934082031,468,-500,356
9334,-1.927001953,-2.839355469,-4.948242188,475,-482,352
9339,-1.931640625,-2.841796875,-4.934082031,487,-503,318
9344,-1.931640625,-2.83984375,-4.94140625,455,-485,354
9349,-1.929931641,-2.842529297,-4.943115234,490,-480,347
9354,-1.932617188,-2.840576172,-4.937744141,470,-498,347
9359,-1.931884766,-2.840332031,-4.935302734,485,-492,347
9364,-1.930175781,-2.841552734,-4.939941406,476,-502,339
9369,-1.932373047,-2.841552734,-4.937988281,482,-505,339
9374,-1.930664063,-2.844238281,-4.937011719,468,-498,325
9379,-1.9296875,-2.842529297,-4.943115234,464,-481,352
9384,-1.929931641,-2.842529297,-4.9375,467,-491,352
9389,-1.930664063,-2.838623047,-4.939941406,493,-473,345
9394,-1.927978516,-2.843261719,-4.937988281,472,-487,341
9399,-1.926513672,-2.841064453,-4.942138672,468,-489,331
9404,-1.934814453,-2.839599609,-4.938476563,465,-489,342
9409,-1.928955078,-2.843505859,-4.940917969,509,-500,344
9415,-1.928222656,-2.836914063,-4.940917969,472,-494,334
9420,-1.931396484,-2.842773438,-4.945068359,468,-488,335
9425,-1.927734375,-2.844726563,-4.939941406,475,-488,355
9430,-1.927001953,-2.842285156,-4.944335938,476,-509,324
9435,-1.937255859,-2.84375,-4.938720703,486,-475,325
9440,-1.929931641,-2.841552734,-4.936523438,487,-493,346
9445,-1.927978516,-2.845703125,-4.935302734,491,-496,331
9450,-1.927734375,-2.838134766,-4.939941406,466,-483,338
9455,-1.928222656,-2.843017578,-4.944091797,474,-489,308
9460,-1.931396484,-2.842041016,-4.946289063,474,-519,328
9465,-1.928710938,-2.842041016,-4.945800781,491,-482,321
9470,-1.931884766,-2.840820313,-4.939453125,472,-503,362
9475,-1.931152344,-2.844970703,-4.934570313,473,-490,347
9480,-1.929199219,-2.841796875,-4.935058594,487,-483,344
9485,-1.932617188,-2.842529297,-4.943359375,486,-495,349
9490,-1.929931641,-2.842529297,-4.935546875,465,-483,344
9495,-1.931640625,-2.843261719,-4.938964844,466,-501,326
9500,-1.930419922,-2.843017578,-4.941650391,479,-490,345
9505,-1.931396484,-2.844482422,-4.943847656,475,-509,327
9510,-1.933105469,-2.841308594,-4.946777344,493,-481,338
9515,-1.928710938,-2.840332031,-4.939697266,484,-492,325
9520,-1.931396484,-2.840576172,-4.940429688,467,-452,332
9525,-1.929199219,-2.842285156,-4.951416016,483,-486,358
9530,-1.93359375,-2.840087891,-4.946044922,486,-483,317
9535,-1.930664063,-2.841064453,-4.934082031,468,-487,328
9540,-1.9296875,-2.837646484,-4.942871094,501,-490,337
9545,-1.932617188,-2.840576172,-4.938720703,501,-515,330
9551,-1.9296875,-2.844482422,-4.94140625,484,-493,325
9556,-1.935791016,-2.843261719,-4.943359375,480,-468,344
9561,-1.93359375,-2.842041016,-4.950195313,472,-497,340
9566,-1.931396484,-2.838378906,-4.94140625,472,-489,358
9571,-1.933105469,-2.843261719,-4.946044922,476,-487,345
9576,-1.931884766,-2.838867188,-4.9375,483,-507,325
9581,-1.927490234,-2.845458984,-4.941894531,482,-498,348
9586,-1.934570313,-2.841308594,-4.940429688,473,-493,348
9591,-1.931884766,-2.843505859,-4.937255859,475,-501,333
9596,-1.929931641,-2.840332031,-4.944580078,448,-492,332
9601,-1.932861328,-2.842529297,-4.940429688,451,-478,327
9606,-1.926757813,-2.845703125,-4.942382813,481,-498,318
9611,-1.926757813,-2.841796875,-4.940185547,484,-488,330
9616,-1.929931641,-2.838378906,-4.939941406,467,-474,344
9621,-1.933105469,-2.839111328,-4.945068359,491,-491,337
9626,-1.930664063,-2.842529297,-4.941894531,491,-489,319
9631,-1.931396484,-2.843261719,-4.944335938,490,-479,338
9636,-1.927978516,-2.840332031,-4.940673828,480,-463,341
9641,-1.930419922,-2.843017578,-4.941650391,513,-481,333
9646,-1.927734375,-2.842529297,-4.940673828,477,-501,345
9651,-1.930908203,-2.842773438,-4.938476563,466,-498,323
9656,-1.930419922,-2.83984375,-4.94140625,455,-473,331
9661,-1.932373047,-2.842773438,-4.948242188,472,-483,323
9666,-1.931152344,-2.837402344,-4.938232422,486,-476,341
9671,-1.9296875,-2.842285156,-4.942626953,465,-480,352
9676,-1.931884766,-2.841308594,-4.941650391,477,-503,323
9681,-1.925048828,-2.842285156,-4.937988281,488,-507,338
9687,-1.927001953,-2.840576172,-4.939697266,486,-498,329
9692,-1.931396484,-2.840332031,-4.944824219,479,-516,355
9697,-1.924560547,-2.843505859,-4.942871094,465,-479,335
9702,-1.932617188,-2.841796875,-4.940429688,492,-500,304
9707,-1.932373047,-2.840820313,-4.943359375,481,-485,341
9712,-1.929931641,-2.840332031,-4.942626953,480,-500,350
9717,-1.932861328,-2.844482422,-4.942871094,482,-484,350
9722,-1.932617188,-2.842529297,-4.937011719,498,-496,335
9727,-1.9296875,-2.844238281,-4.938476563,487,-506,344
9732,-1.935302734,-2.843017578,-4.940917969,486,-485,339
9737,-1.936035156,-2.84375,-4.935302734,477,-495,316
9742,-1.926513672,-2.839111328,-4.940673828,460,-485,334
9747,-1.927490234,-2.840332031,-4.948974609,477,-511,334
9752,-1.930908203,-2.840820313,-4.937744141,489,-480,349
9757,-1.926025391,-2.840087891,-4.938476563,492,-529,318
9762,-1.929199219,-2.841064453,-4.947265625,468,-490,336
9767,-1.932128906,-2.838623047,-4.946777344,488,-496,325
9772,-1.929199219,-2.843261719,-4.935791016,476,-489,373
9777,-1.930175781,-2.843994141,-4.939697266,464,-476,351
9782,-1.933349609,-2.841064453,-4.94140625,499,-494,327
9787,-1.927734375,-2.843261719,-4.945800781,465,-504,323
9792,-1.936035156,-2.843017578,-4.941894531,461,-495,340
9797,-1.928222656,-2.842285156,-4.939697266,484,-487,370
9802,-1.932373047,-2.839111328,-4.938232422,468,-524,357
9807,-1.931152344,-2.843261719,-4.940673828,483,-472,325
9812,-1.928710938,-2.840087891,-4.938476563,480,-473,336
9817,-1.932617188,-2.843017578,-4.944091797,484,-504,316
9823,-1.927246094,-2.842529297,-4.943847656,496,-497,334
9828,-1.930664063,-2.843994141,-4.935791016,452,-519,332
9833,-1.931640625,-2.840576172,-4.939208984,474,-514,316
9838,-1.929443359,-2.841064453,-4.94140625,483,-487,344
9843,-1.931640625,-2.838378906,-4.937011719,481,-498,309
9848,-1.928710938,-2.838134766,-4.9375,495,-499,350
9853,-1.931152344,-2.840332031,-4.931884766,484,-491,342
9858,-1.930664063,-2.838623047,-4.937255859,484,-486,346
9863,-1.929931641,-2.844482422,-4.940429688,490,-492,345
9868,-1.93359375,-2.838867188,-4.940185547,479,-504,325
9873,-1.933105469,-2.843017578,-4.943847656,497,-467,353
9878,-1.931396484,-2.843261719,-4.937011719,481,-477,349
9883,-1.930419922,-2.839355469,-4.935058594,465,-478,350
9888,-1.928710938,-2.840576172,-4.940429688,464,-491,334
9893,-1.929931641,-2.840087891,-4.940673828,491,-495,316
9898,-1.932861328,-2.841064453,-4.947265625,487,-495,348
9903,-1.93359375,-2.841552734,-4.94140625,471,-489,361
9908,-1.9296875,-2.839599609,-4.941162109,469,-487,347
9913,-1.929931641,-2.843505859,-4.942382813,473,-493,351
9918,-1.925292969,-2.839599609,-4.938232422,479,-486,336
9923,-1.932617188,-2.84375,-4.947753906,484,-504,316
9928,-1.929931641,-2.839355469,-4.940917969,488,-498,334
9933,-1.932617188,-2.843261719,-4.940429688,468,-484,362
9938,-1.931396484,-2.844482422,-4.939453125,466,-502,322
9943,-1.934082031,-2.842773438,-4.944091797,470,-493,336
9948,-1.926757813,-2.840087891,-4.940429688,480,-494,349
9953,-1.927734375,-2.83984375,-4.936523438,474,-476,325
9959,-1.932861328,-2.842041016,-4.944824219,477,-485,328
9964,-1.931884766,-2.842529297,-4.936767578,475,-498,326
9969,-1.930175781,-2.841796875,-4.94921875,478,-511,351
9974,-1.9296875,-2.842041016,-4.940673828,500,-514,339
9979,-1.93359375,-2.84375,-4.940429688,486,-495,349
9984,-1.930908203,-2.839355469,-4.944580078,480,-494,309
9989,-1.935791016,-2.839599609,-4.944091797,486,-470,343
9994,-1.932373047,-2.838623047,-4.947509766,462,-477,322
9999,-1.929199219,-2.83984375,-4.942138672,470,-494,325
10004,-1.936523438,-2.844238281,-4.938232422,486,-480,342
10009,-1.933105469,-2.841796875,-4.943359375,464,-482,349
10014,-1.925292969,-2.841796875,-4.943115234,460,-473,318
10019,-1.930175781,-2.842529297,-4.943115234,484,-493,325
10024,-1.930419922,-2.838623047,-4.935302734,477,-520,352
10029,-1.934082031,-2.842285156,-4.936035156,474,-512,343
10034,-1.931884766,-2.841064453,-4.945068359,468,-483,339
10039,-1.931396484,-2.841796875,-4.936767578,470,-487,327
10044,-1.929199219,-2.844238281,-4.942138672,478,-497,338
10049,-1.935791016,-2.844970703,-4.943359375,465,-478,355
10054,-1.930908203,-2.842285156,-4.947998047,479,-478,342
10059,-1.926025391,-2.837890625,-4.938232422,488,-490,339
10064,-1.931396484,-2.840820313,-4.941650391,489,-501,325
10069,-1.934082031,-2.837646484,-4.943603516,493,-499,344
10074,-1.931884766,-2.842773438,-4.937744141,479,-480,321
10079,-1.932128906,-2.840332031,-4.943115234,473,-497,348
10084,-1.9296875,-2.840820313,-4.946533203,477,-505,333
10089,-1.9296875,-2.843994141,-4.947021484,503,-478,324
10095,-1.934814453,-2.841064453,-4.944580078,466,-503,336
10100,-1.931884766,-2.843505859,-4.946777344,473,-475,335
10105,-1.930419922,-2.838134766,-4.939453125,477,-485,341
10110,-1.929931641,-2.844482422,-4.944091797,488,-506,348
10115,-1.927490234,-2.840087891,-4.936279297,489,-502,353
10120,-1.928710938,-2.83984375,-4.94140625,455,-491,346
10125,-1.929199219,-2.83984375,-4.939453125,490,-514,334
10130,-1.929931641,-2.841796875,-4.943359375,480,-475,357
10135,-1.931884766,-2.839599609,-4.937011719,498,-488,312
10140,-1.931884766,-2.846679688,-4.940673828,476,-485,332
10145,-1.930664063,-2.841796875,-4.942382813,496,-491,344
10150,-1.932373047,-2.840576172,-4.938232422,468,-487,330
10155,-1.933837891,-2.841064453,-4.942626953,468,-490,336
10160,-1.930419922,-2.836181641,-4.939208984,465,-506,338
10165,-1.928955078,-2.84375,-4.942382813,472,-479,351
10170,-1.932861328,-2.840087891,-4.942871094,491,-527,345
10175,-1.929199219,-2.840087891,-4.942382813,484,-515,308
10180,-1.93359375,-2.840576172,-4.937744141,457,-493,328
10185,-1.935302734,-2.841552734,-4.939941406,486,-504,337
10190,-1.931640625,-2.842529297,-4.943115234,481,-481,332
10195,-1.932373047,-2.842773438,-4.941650391,472,-476,327
10200,-1.93359375,-2.840820313,-4.936279297,480,-496,331
10205,-1.930175781,-2.843505859,-4.937744141,476,-497,329
10210,-1.933105469,-2.841552734,-4.932373047,477,-504,306
10215,-1.930175781,-2.842529297,-4.940429688,468,-492,331
10220,-1.931152344,-2.837890625,-4.945556641,461,-517,346
10225,-1.930419922,-2.844238281,-4.943115234,470,-502,347
10231,-1.927001953,-2.844238281,-4.937255859,468,-508,333
10236,-1.929931641,-2.841308594,-4.944580078,491,-492,363
10241,-1.936279297,-2.843994141,-4.940185547,474,-483,334
10246,-1.930908203,-2.841796875,-4.940917969,495,-486,323
10251,-1.929931641,-2.838867188,-4.944335938,497,-483,343
10256,-1.928710938,-2.843505859,-4.9375,476,-477,320
10261,-1.935058594,-2.842285156,-4.943115234,465,-503,345
10266,-1.933837891,-2.842773438,-4.945068359,473,-484,316
10271,-1.928955078,-2.83984375,-4.948974609,488,-494,325
10276,-1.932128906,-2.839111328,-4.941894531,470,-498,328
10281,-1.929931641,-2.840576172,-4.932861328,480,-511,362
10286,-1.929931641,-2.840820313,-4.94140625,485,-476,328
10291,-1.930175781,-2.839111328,-4.94140625,477,-489,354
10296,-1.927978516,-2.841064453,-4.940917969,470,-490,344
10301,-1.932128906,-2.843261719,-4.940185547,504,-513,333
10306,-1.931396484,-2.839111328,-4.9453125,482,-519,332
10311,-1.929931641,-2.839355469,-4.943115234,467,-498,344
10316,-1.931640625,-2.843994141,-4.942871094,486,-487,324
10321,-1.927001953,-2.83984375,-4.944091797,474,-510,332
10326,-1.930908203,-2.842529297,-4.938232422,482,-474,339
10331,-1.932861328,-2.840820313,-4.942871094,488,-505,322
10336,-1.934570313,-2.839355469,-4.935791016,464,-498,344
10341,-1.936523438,-2.841796875,-4.940185547,477,-484,352
10346,-1.931884766,-2.840332031,-4.939697266,479,-485,334
10351,-1.927978516,-2.841796875,-4.944824219,483,-504,340
10356,-1.925292969,-2.841308594,-4.945800781,486,-486,336
10361,-1.928222656,-2.840087891,-4.943359375,481,-509,356
10367,-1.929931641,-2.839599609,-4.939208984,488,-500,356
10372,-1.927246094,-2.842529297,-4.939697266,492,-511,336
10377,-1.932373047,-2.840820313,-4.943847656,477,-495,326
10382,-1.932617188,-2.839355469,-4.941650391,474,-495,330
10387,-1.929199219,-2.843994141,-4.941650391,486,-498,340
10392,-1.927001953,-2.840332031,-4.939941406,457,-472,328
10397,-1.93359375,-2.843261719,-4.934570313,494,-486,337
10402,-1.9296875,-2.843017578,-4.945556641,489,-503,334
10407,-1.927246094,-2.844970703,-4.942626953,483,-497,351
10412,-1.935058594,-2.843505859,-4.946289063,467,-506,335
10417,-1.926025391,-2.839599609,-4.939697266,480,-499,341
10422,-1.929443359,-2.840087891,-4.936767578,457,-476,348
10427,-1.932861328,-2.840332031,-4.9453125,468,-486,366
10432,-1.930664063,-2.837158203,-4.944091797,477,-499,338
10437,-1.935302734,-2.841796875,-4.940917969,485,-473,331
10442,-1.931640625,-2.838623047,-4.938720703,475,-494,313
10447,-1.930419922,-2.844238281,-4.932617188,480,-473,331
10452,-1.93359375,-2.839599609,-4.934814453,489,-483,333
10457,-1.929443359,-2.83984375,-4.945800781,497,-479,329
10462,-1.927490234,-2.840576172,-4.938232422,479,-484,317
10467,-1.931152344,-2.844482422,-4.943115234,499,-484,319
10472,-1.932861328,-2.846435547,-4.939208984,485,-515,331
10477,-1.929199219,-2.840087891,-4.948486328,480,-475,325
10482,-1.928466797,-2.843994141,-4.941162109,487,-490,332
10487,-1.932861328,-2.843017578,-4.946289063,474,-486,304
10492,-1.926757813,-2.843505859,-4.938476563,471,-494,351
10497,-1.931640625,-2.840087891,-4.938232422,473,-493,337
10503,-1.934814453,-2.840576172,-4.943359375,481,-495,320
10508,-1.930664063,-2.840087891,-4.943603516,485,-478,322
10513,-1.934082031,-2.836914063,-4.940917969,465,-492,352
10518,-1.933105469,-2.84375,-4.943359375,492,-502,333
10523,-1.929443359,-2.839111328,-4.945800781,491,-506,344
10528,-1.929931641,-2.837890625,-4.942871094,480,-508,334
10533,-1.928466797,-2.839111328,-4.939941406,480,-481,351
10538,-1.932861328,-2.842041016,-4.936035156,496,-524,322
10543,-1.931884766,-2.841552734,-4.948974609,476,-486,354
10548,-1.927490234,-2.836425781,-4.9375,474,-493,338
10553,-1.9296875,-2.843261719,-4.946533203,477,-480,324
10558,-1.934082031,-2.842529297,-4.944335938,480,-479,345
10563,-1.927001953,-2.843505859,-4.941894531,494,-508,348
10568,-1.932617188,-2.839111328,-4.937988281,475,-479,339
10573,-1.933349609,-2.843017578,-4.942382813,490,-476,340
10578,-1.9296875,-2.842285156,-4.939208984,464,-501,371
10583,-1.930664063,-2.838623047,-4.947021484,469,-476,321
10588,-1.93359375,-2.842041016,-4.943603516,479,-499,342
10593,-1.927734375,-2.842041016,-4.952880859,468,-493,323
10598,-1.931152344,-2.841796875,-4.940429688,488,-471,312
10603,-1.9296875,-2.841796875,-4.941650391,478,-492,338
10608,-1.929931641,-2.841796875,-4.941650391,472,-494,341
10613,-1.928955078,-2.845458984,-4.937988281,466,-468,347
10618,-1.934326172,-2.83984375,-4.940673828,481,-487,324
10623,-1.930664063,-2.840087891,-4.940673828,468,-505,338
10628,-1.930908203,-2.840576172,-4.938232422,470,-481,326
10633,-1.933105469,-2.841552734,-4.943115234,471,-481,343
10639,-1.929931641,-2.842773438,-4.948242188,489,-493,329
10644,-1.930175781,-2.840820313,-4.938964844,491,-499,324
10649,-1.93359375,-2.839599609,-4.937988281,490,-467,326
10654,-1.927001953,-2.839355469,-4.942871094,478,-499,339
10659,-1.922607422,-2.8359375,-4.944335938,492,-507,348
10664,-1.933349609,-2.837158203,-4.941894531,490,-481,347
10669,-1.929931641,-2.840820313,-4.93359375,476,-463,331
10674,-1.930175781,-2.844970703,-4.939453125,484,-491,347
10679,-1.933105469,-2.839355469,-4.944580078,485,-486,351
