Time,Acc_X,Acc_Y,Acc_Z,Gyro_X,Gyro_Y,Gyro_Z
5,-2.929199219,-1.830566406,-4.942626953,535,-476,297
10,-2.928222656,-1.821777344,-4.942138672,509,-501,283
15,-2.929931641,-1.82421875,-4.944091797,532,-468,290
20,-2.929199219,-1.823730469,-4.939453125,514,-485,278
25,-2.927001953,-1.823730469,-4.943359375,507,-470,270
30,-2.932861328,-1.826416016,-4.942871094,503,-482,255
35,-2.928466797,-1.825927734,-4.950195313,513,-507,264
40,-2.931396484,-1.825439453,-4.948242188,524,-481,272
45,-2.928222656,-1.828125,-4.949462891,506,-485,302
50,-2.927001953,-1.825927734,-4.942382813,511,-485,296
55,-2.927246094,-1.825927734,-4.938232422,521,-493,304
60,-2.9296875,-1.824951172,-4.941650391,525,-481,280
65,-2.92578125,-1.821533203,-4.939208984,504,-458,254
70,-2.926513672,-1.825195313,-4.941162109,515,-475,268
76,-2.928955078,-1.824462891,-4.942382813,502,-500,266
81,-2.927001953,-1.82421875,-4.947021484,498,-482,269
86,-2.930419922,-1.824707031,-4.945800781,498,-479,267
91,-2.930175781,-1.822509766,-4.9453125,499,-479,296
96,-2.922851563,-1.823974609,-4.945556641,502,-477,268
101,-2.930175781,-1.829101563,-4.945800781,517,-500,302
106,-2.932128906,-1.827392578,-4.945556641,508,-485,278
111,-2.931152344,-1.829101563,-4.944091797,485,-462,291
116,-2.927734375,-1.82421875,-4.940673828,534,-482,266
121,-2.930419922,-1.827880859,-4.940673828,526,-482,265
126,-2.926025391,-1.829101563,-4.940185547,504,-482,282
131,-2.925292969,-1.826171875,-4.951171875,501,-476,288
136,-2.932861328,-1.823242188,-4.939208984,516,-495,275
141,-2.930419922,-1.822998047,-4.941894531,515,-505,260
146,-2.931640625,-1.82421875,-4.945556641,503,-471,291
151,-2.933349609,-1.822998047,-4.946777344,510,-496,303
156,-2.929443359,-1.827148438,-4.945556641,521,-494,309
161,-2.928466797,-1.821533203,-4.952636719,521,-479,307
166,-2.927978516,-1.825195313,-4.940917969,508,-489,288
171,-2.929931641,-1.826171875,-4.943359375,509,-479,284
176,-2.928710938,-1.823730469,-4.939208984,504,-479,297
181,-2.9296875,-1.822998047,-4.946289063,501,-494,266
186,-2.930664063,-1.827392578,-4.943847656,495,-495,259
191,-2.930175781,-1.824462891,-4.940673828,487,-462,282
196,-2.930175781,-1.824462891,-4.942871094,509,-486,291
201,-2.926513672,-1.826660156,-4.937255859,551,-468,295
206,-2.930419922,-1.825439453,-4.942626953,539,-472,275
212,-2.927246094,-1.822265625,-4.947021484,510,-459,294
217,-2.930908203,-1.826171875,-4.946289063,498,-485,262
222,-2.924072266,-1.821777344,-4.944824219,504,-487,266
227,-2.927490234,-1.820800781,-4.950439453,494,-520,268
232,-2.927490234,-1.828125,-4.942871094,512,-500,264
237,-2.9296875,-1.822021484,-4.930908203,526,-515,260
242,-2.928710938,-1.823730469,-4.943115234,512,-490,261
247,-2.927246094,-1.826416016,-4.941162109,507,-486,258
252,-2.932128906,-1.823486328,-4.937011719,523,-496,295
257,-2.927978516,-1.822509766,-4.944335938,503,-471,284
262,-2.931884766,-1.8203125,-4.943603516,515,-490,270
267,-2.931396484,-1.823730469,-4.947998047,516,-493,296
272,-2.92578125,-1.827636719,-4.945068359,492,-493,275
277,-2.931396484,-1.826904297,-4.94921875,515,-491,294
282,-2.925292969,-1.825683594,-4.939697266,523,-494,279
287,-2.932617188,-1.827636719,-4.945556641,505,-472,296
292,-2.929931641,-1.829345703,-4.937988281,510,-496,286
297,-2.927734375,-1.823242188,-4.943603516,515,-492,295
302,-2.927734375,-1.828125,-4.949462891,515,-488,281
307,-2.929443359,-1.823730469,-4.945556641,508,-491,281
312,-2.928466797,-1.822753906,-4.948242188,502,-470,284
317,-2.930175781,-1.823730469,-4.948486328,501,-483,293
322,-2.9296875,-1.823730469,-4.940917969,501,-485,290
327,-2.931884766,-1.822753906,-4.947998047,497,-479,267
332,-2.926025391,-1.830322266,-4.941162109,506,-487,295
337,-2.927978516,-1.825439453,-4.937255859,506,-484,281
342,-2.929199219,-1.823974609,-4.945800781,508,-482,303
348,-2.928955078,-1.825195313,-4.940429688,508,-469,308
353,-2.928955078,-1.824462891,-4.943847656,542,-495,278
358,-2.928222656,-1.824951172,-4.942382813,514,-504,302
363,-2.928466797,-1.821533203,-4.947998047,513,-495,266
368,-2.928710938,-1.82421875,-4.938232422,510,-492,258
373,-2.930908203,-1.822753906,-4.945556641,508,-480,286
378,-2.931152344,-1.822021484,-4.944091797,492,-497,271
383,-2.931640625,-1.824462891,-4.939453125,500,-479,267
388,-2.929931641,-1.823730469,-4.946289063,521,-503,261
393,-2.927734375,-1.823974609,-4.942871094,520,-490,300
398,-2.928466797,-1.825927734,-4.943115234,534,-493,275
403,-2.928466797,-1.832275391,-4.940673828,502,-498,266
408,-2.927978516,-1.828369141,-4.944824219,512,-498,291
413,-2.932861328,-1.822753906,-4.943603516,505,-491,282
418,-2.927734375,-1.826660156,-4.947753906,531,-496,280
423,-2.929199219,-1.824707031,-4.937744141,501,-482,284
428,-2.930664063,-1.818603516,-4.945068359,501,-479,286
433,-2.927978516,-1.825439453,-4.943359375,511,-481,274
438,-2.925537109,-1.826904297,-4.938964844,507,-500,262
443,-2.931396484,-1.823242188,-4.950927734,524,-480,289
448,-2.929443359,-1.827880859,-4.939941406,497,-484,279
453,-2.929931641,-1.825439453,-4.943603516,519,-485,268
458,-2.932373047,-1.823242188,-4.946533203,525,-498,273
463,-2.927001953,-1.821533203,-4.942382813,503,-467,287
468,-2.928710938,-1.829345703,-4.943115234,529,-478,289
473,-2.92578125,-1.825927734,-4.946777344,507,-485,274
478,-2.928466797,-1.826416016,-4.946044922,513,-495,272
484,-2.9296875,-1.825927734,-4.944091797,526,-493,272
489,-2.92578125,-1.821777344,-4.932373047,499,-491,289
494,-2.927734375,-1.823242188,-4.946533203,511,-480,301
499,-2.930175781,-1.823730469,-4.9453125,538,-498,280
504,-2.930664063,-1.828369141,-4.943115234,522,-484,289
509,-2.927246094,-1.822998047,-4.9453125,520,-483,281
514,-2.928955078,-1.822265625,-4.951660156,510,-479,290
519,-2.932373047,-1.825439453,-4.938964844,496,-467,269
524,-2.927001953,-1.824951172,-4.942626953,501,-494,296
529,-2.927978516,-1.825683594,-4.945556641,527,-497,295
534,-2.929443359,-1.827148438,-4.937988281,528,-495,275
539,-2.928222656,-1.828125,-4.940185547,506,-506,261
544,-2.931396484,-1.822509766,-4.938476563,499,-455,269
549,-2.931396484,-1.825195313,-4.948974609,515,-498,274
554,-2.930175781,-1.821044922,-4.937988281,526,-480,288
559,-2.9296875,-1.8203125,-4.939697266,509,-491,283
564,-2.925537109,-1.827636719,-4.940185547,542,-497,260
569,-2.928466797,-1.822509766,-4.945068359,513,-485,275
574,-2.928710938,-1.829589844,-4.939453125,500,-499,269
579,-2.92578125,-1.828857422,-4.940917969,523,-486,277
584,-2.930419922,-1.828125,-4.942382813,496,-501,276
589,-2.930908203,-1.827148438,-4.942626953,517,-477,295
594,-2.929199219,-1.823486328,-4.944335938,501,-480,293
599,-2.932373047,-1.824951172,-4.942871094,508,-489,268
604,-2.927734375,-1.825439453,-4.947998047,500,-527,298
609,-2.928955078,-1.823730469,-4.942382813,512,-468,297
614,-2.932617188,-1.826416016,-4.944091797,507,-463,270
620,-2.930175781,-1.830322266,-4.941650391,510,-480,279
625,-2.931640625,-1.821533203,-4.945556641,509,-484,290
630,-2.932617188,-1.823486328,-4.952880859,516,-489,291
635,-2.928222656,-1.826660156,-4.947265625,510,-486,267
640,-2.930908203,-1.826171875,-4.944335938,522,-503,272
645,-2.927734375,-1.823730469,-4.942626953,501,-498,271
650,-2.933105469,-1.827148438,-4.940673828,492,-495,299
655,-2.934326172,-1.822753906,-4.94140625,524,-483,275
660,-2.928710938,-1.822753906,-4.945800781,501,-468,266
665,-2.934082031,-1.823974609,-4.940917969,498,-483,283
670,-2.928710938,-1.822998047,-4.935058594,510,-487,286
675,-2.929199219,-1.822265625,-4.946289063,509,-474,281
680,-2.931884766,-1.82421875,-4.942871094,530,-466,292
685,-2.927246094,-1.824951172,-4.937988281,501,-499,286
690,-2.926513672,-1.825683594,-4.942138672,525,-477,271
695,-2.930664063,-1.827392578,-4.944091797,503,-491,266
700,-2.929931641,-1.828125,-4.946289063,541,-467,288
705,-2.925537109,-1.822509766,-4.947998047,497,-488,253
710,-2.926269531,-1.828857422,-4.944580078,509,-485,268
715,-2.931640625,-1.820800781,-4.945068359,511,-485,285
720,-2.9296875,-1.823486328,-4.946289063,514,-501,267
725,-2.927490234,-1.818603516,-4.945556641,519,-506,266
730,-2.932128906,-1.821777344,-4.948730469,523,-478,255
735,-2.927001953,-1.824951172,-4.937011719,511,-502,262
740,-2.927246094,-1.825195313,-4.943847656,510,-484,279
745,-2.930664063,-1.823974609,-4.940429688,505,-483,279
750,-2.929199219,-1.824951172,-4.940673828,496,-495,285
756,-2.928710938,-1.825927734,-4.942138672,522,-506,264
761,-2.932617188,-1.825927734,-4.943115234,518,-467,259
766,-2.928710938,-1.824951172,-4.946044922,547,-500,274
771,-2.931640625,-1.826171875,-4.946777344,536,-503,295
776,-2.935058594,-1.822021484,-4.948486328,523,-471,300
781,-2.930419922,-1.825683594,-4.948730469,504,-493,289
786,-2.926513672,-1.824707031,-4.951416016,505,-471,264
791,-2.927734375,-1.820800781,-4.942871094,532,-464,259
796,-2.923828125,-1.819580078,-4.943359375,504,-466,241
801,-2.934570313,-1.828613281,-4.943603516,512,-480,284
806,-2.928955078,-1.824462891,-4.944091797,509,-490,271
811,-2.930419922,-1.826416016,-4.942871094,516,-471,261
816,-2.924804688,-1.825439453,-4.948242188,505,-489,293
821,-2.930664063,-1.825439453,-4.94140625,528,-492,302
826,-2.926025391,-1.823242188,-4.944580078,532,-491,272
831,-2.928955078,-1.82421875,-4.948730469,501,-470,280
836,-2.9296875,-1.830566406,-4.942382813,511,-475,271
841,-2.928222656,-1.825683594,-4.940429688,492,-473,272
846,-2.927490234,-1.826904297,-4.941894531,508,-472,280
851,-2.926025391,-1.828613281,-4.937255859,524,-497,276
856,-2.9296875,-1.823730469,-4.941894531,511,-482,285
861,-2.927001953,-1.823974609,-4.940917969,528,-491,282
866,-2.931152344,-1.826660156,-4.943115234,499,-455,296
871,-2.932373047,-1.822021484,-4.950683594,523,-462,276
876,-2.927001953,-1.824951172,-4.947265625,517,-489,270
881,-2.925292969,-1.827880859,-4.942138672,501,-484,276
886,-2.930419922,-1.822998047,-4.945068359,516,-475,265
892,-2.929443359,-1.824462891,-4.941894531,499,-498,271
897,-2.928955078,-1.825439453,-4.947265625,512,-484,280
902,-2.930175781,-1.825439453,-4.942138672,513,-490,277
907,-2.930175781,-1.823730469,-4.940917969,516,-471,269
912,-2.9296875,-1.825683594,-4.9453125,520,-480,291
917,-2.928710938,-1.823974609,-4.944335938,542,-494,276
922,-2.930175781,-1.827392578,-4.942871094,527,-473,318
927,-2.928466797,-1.822021484,-4.943115234,532,-482,251
932,-2.929931641,-1.827148438,-4.947265625,502,-474,288
937,-2.930175781,-1.829345703,-4.939697266,514,-495,275
942,-2.9296875,-1.823730469,-4.945800781,477,-488,271
947,-2.929931641,-1.827636719,-4.943115234,502,-488,269
952,-2.929931641,-1.826416016,-4.942138672,511,-482,281
957,-2.926513672,-1.823730469,-4.945068359,518,-513,275
962,-2.932373047,-1.820800781,-4.949462891,516,-472,279
967,-2.9296875,-1.822021484,-4.941162109,524,-479,290
972,-2.9296875,-1.825683594,-4.948730469,516,-485,276
977,-2.930664063,-1.821533203,-4.939697266,516,-499,240
982,-2.930419922,-1.828125,-4.946777344,518,-470,280
987,-2.930175781,-1.824707031,-4.940673828,500,-488,313
992,-2.929931641,-1.82421875,-4.939208984,502,-477,254
997,-2.926269531,-1.823242188,-4.9453125,537,-474,290
1002,-2.930419922,-1.825683594,-4.944580078,535,-485,285
1007,-2.927490234,-1.820556641,-4.945556641,524,-470,310
1012,-2.929931641,-1.823730469,-4.94140625,523,-475,309
1017,-2.927490234,-1.826171875,-4.937255859,525,-481,279
1022,-2.927734375,-1.820800781,-4.943603516,509,-491,298
1028,-2.926757813,-1.823730469,-4.947509766,517,-491,262
1033,-2.927978516,-1.822265625,-4.938232422,532,-491,268
1038,-2.934082031,-1.825439453,-4.939941406,506,-478,269
1043,-2.927978516,-1.822265625,-4.9375,504,-493,287
1048,-2.927978516,-1.824462891,-4.943115234,518,-504,306
1053,-2.930175781,-1.824462891,-4.939941406,521,-477,271
1058,-2.926025391,-1.823730469,-4.944824219,534,-495,278
1063,-2.928710938,-1.822265625,-4.947509766,499,-485,279
1068,-2.927734375,-1.825927734,-4.939941406,531,-481,287
1073,-2.924560547,-1.827148438,-4.942626953,530,-472,285
1078,-2.932373047,-1.822753906,-4.944335938,517,-468,260
1083,-2.929931641,-1.825439453,-4.947021484,488,-483,279
1088,-2.927490234,-1.822265625,-4.946044922,496,-477,277
1093,-2.928710938,-1.823730469,-4.942382813,486,-489,276
1098,-2.933105469,-1.827392578,-4.939453125,511,-499,294
1103,-2.931152344,-1.82421875,-4.948486328,516,-475,288
1108,-2.932373047,-1.825927734,-4.942382813,526,-476,274
1113,-2.928466797,-1.826416016,-4.947753906,507,-496,282
1118,-2.928222656,-1.826416016,-4.942382813,516,-475,297
1123,-2.926269531,-1.823486328,-4.943847656,524,-472,292
1128,-2.928710938,-1.822998047,-4.946533203,530,-480,260
1133,-2.930419922,-1.825439453,-4.942138672,523,-483,264
1138,-2.927978516,-1.827636719,-4.949462891,523,-504,274
1143,-2.929199219,-1.822753906,-4.941650391,502,-483,306
1148,-2.932861328,-1.828125,-4.943359375,509,-487,272
1153,-2.929199219,-1.825683594,-4.941650391,529,-484,271
1158,-2.929199219,-1.822998047,-4.942871094,491,-502,304
1164,-2.926269531,-1.823486328,-4.949707031,514,-477,291
1169,-2.927001953,-1.823730469,-4.947265625,518,-500,286
1174,-2.924804688,-1.824951172,-4.942871094,516,-470,268
1179,-2.927978516,-1.824951172,-4.945800781,525,-496,261
1184,-2.930664063,-1.829345703,-4.939453125,508,-492,255
1189,-2.931884766,-1.828125,-4.944335938,494,-495,264
1194,-2.927978516,-1.824462891,-4.940429688,494,-481,282
1199,-2.928710938,-1.826904297,-4.941162109,508,-484,254
1204,-2.930175781,-1.823242188,-4.940673828,516,-510,288
1209,-2.931396484,-1.824707031,-4.945800781,528,-488,285
1214,-2.927978516,-1.824951172,-4.9375,525,-461,280
1219,-2.924072266,-1.825683594,-4.941650391,542,-500,281
1224,-2.928710938,-1.819091797,-4.946533203,496,-462,277
1229,-2.929443359,-1.828857422,-4.944580078,498,-508,287
1234,-2.927734375,-1.824951172,-4.940429688,504,-484,281
1239,-2.933349609,-1.825927734,-4.948730469,500,-483,264
1244,-2.929443359,-1.824951172,-4.949707031,508,-506,250
1249,-2.930664063,-1.822021484,-4.942382813,539,-493,278
1254,-2.927490234,-1.82421875,-4.939208984,521,-480,279
1259,-2.927734375,-1.820800781,-4.941162109,525,-480,298
1264,-2.927734375,-1.826171875,-4.947265625,525,-480,267
1269,-2.928466797,-1.821044922,-4.943115234,500,-488,285
1274,-2.928710938,-1.825195313,-4.943847656,518,-464,262
1279,-2.930908203,-1.824707031,-4.939208984,509,-495,269
1284,-2.9296875,-1.829833984,-4.938476563,518,-488,288
1289,-2.930175781,-1.826904297,-4.947998047,519,-497,268
1294,-2.931640625,-1.823486328,-4.945556641,524,-499,289
1300,-2.924072266,-1.825195313,-4.94140625,510,-476,304
1305,-2.930419922,-1.821533203,-4.942871094,501,-474,322
1310,-2.927246094,-1.824951172,-4.945800781,518,-487,278
1315,-2.929199219,-1.824462891,-4.940185547,498,-492,266
1320,-2.927490234,-1.825195313,-4.939941406,539,-476,265
1325,-2.931152344,-1.825439453,-4.946777344,508,-467,277
1330,-2.926025391,-1.822265625,-4.935791016,490,-493,271
1335,-2.928466797,-1.824707031,-4.938720703,499,-471,260
1340,-2.931396484,-1.824707031,-4.942626953,499,-493,282
1345,-2.934570313,-1.827880859,-4.942871094,516,-509,286
1350,-2.928710938,-1.824707031,-4.943847656,531,-487,288
1355,-2.9296875,-1.823974609,-4.956298828,539,-489,277
1360,-2.928466797,-1.823974609,-4.944580078,528,-477,282
1365,-2.929199219,-1.82421875,-4.950195313,518,-481,280
1370,-2.928955078,-1.82421875,-4.938232422,491,-505,285
1375,-2.926513672,-1.820556641,-4.937744141,486,-476,284
1380,-2.9296875,-1.826416016,-4.940429688,506,-465,284
1385,-2.927490234,-1.828369141,-4.940673828,528,-516,282
1390,-2.930908203,-1.823974609,-4.9453125,500,-475,272
1395,-2.927978516,-1.8203125,-4.937011719,524,-472,286
1400,-2.927978516,-1.826660156,-4.9375,516,-480,277
1405,-2.929199219,-1.823486328,-4.943603516,518,-491,285
1410,-2.931640625,-1.825195313,-4.946289063,501,-475,287
1415,-2.927978516,-1.822753906,-4.940185547,506,-473,278
1420,-2.924804688,-1.822509766,-4.946777344,502,-510,281
1425,-2.926025391,-1.824951172,-4.941162109,515,-503,267
1430,-2.930908203,-1.82421875,-4.939941406,494,-475,276
1436,-2.927978516,-1.82421875,-4.934326172,513,-510,270
1441,-2.933349609,-1.820556641,-4.936035156,504,-481,270
1446,-2.930419922,-1.827148438,-4.949462891,520,-502,247
1451,-2.933105469,-1.821044922,-4.932861328,513,-507,280
1456,-2.929931641,-1.826416016,-4.945068359,524,-477,266
1461,-2.930175781,-1.823730469,-4.94921875,497,-487,286
1466,-2.929931641,-1.826171875,-4.947265625,524,-464,280
1471,-2.928710938,-1.825439453,-4.940185547,505,-502,284
1476,-2.927246094,-1.820556641,-4.939941406,478,-487,300
1481,-2.927734375,-1.829345703,-4.935791016,526,-484,290
1486,-2.929931641,-1.821777344,-4.941162109,502,-500,279
1491,-2.928955078,-1.822509766,-4.945800781,511,-488,278
1496,-2.930175781,-1.823974609,-4.939697266,502,-443,291
1501,-2.928466797,-1.822021484,-4.943359375,514,-489,286
1506,-2.930419922,-1.823730469,-4.94921875,502,-460,286
1511,-2.929443359,-1.821044922,-4.944091797,504,-477,290
1516,-2.926513672,-1.827148438,-4.941894531,534,-495,304
1521,-2.927490234,-1.826660156,-4.940917969,514,-493,285
1526,-2.927490234,-1.822265625,-4.945556641,502,-471,269
1531,-2.927246094,-1.825439453,-4.942871094,506,-490,265
1536,-2.927490234,-1.823242188,-4.942626953,500,-489,266
1541,-2.925292969,-1.823730469,-4.944824219,494,-469,295
1546,-2.926513672,-1.827392578,-4.940673828,518,-493,296
1551,-2.931396484,-1.824462891,-4.939697266,512,-499,284
1556,-2.929199219,-1.825683594,-4.939697266,508,-488,261
1561,-2.929443359,-1.825195313,-4.943359375,497,-495,290
1566,-2.926757813,-1.822998047,-4.94140625,510,-478,287
1572,-2.930175781,-1.822265625,-4.937988281,524,-478,288
1577,-2.927978516,-1.828613281,-4.942382813,510,-479,286
1582,-2.928710938,-1.825439453,-4.942626953,527,-471,271
1587,-2.932861328,-1.827880859,-4.943359375,541,-484,288
1592,-2.931152344,-1.824462891,-4.942871094,505,-482,288
1597,-2.926513672,-1.824951172,-4.94140625,494,-463,279
1602,-2.928955078,-1.824707031,-4.944091797,518,-500,275
1607,-2.927246094,-1.825439453,-4.940429688,492,-508,282
1612,-2.929931641,-1.824707031,-4.946533203,513,-490,277
1617,-2.933349609,-1.832763672,-4.944091797,529,-488,283
1622,-2.927490234,-1.822509766,-4.943603516,524,-502,272
1627,-2.928466797,-1.822998047,-4.94140625,490,-494,264
1632,-2.932617188,-1.825927734,-4.944091797,518,-490,274
1637,-2.930664063,-1.827636719,-4.948730469,514,-485,278
1642,-2.927001953,-1.822509766,-4.940429688,490,-475,294
1647,-2.928955078,-1.824951172,-4.940429688,517,-462,294
1652,-2.926025391,-1.828857422,-4.945556641,510,-467,298
1657,-2.929931641,-1.822021484,-4.947021484,539,-490,306
1662,-2.928466797,-1.827392578,-4.9375,503,-492,275
1667,-2.931640625,-1.82421875,-4.940429688,502,-480,257
1672,-2.927734375,-1.822753906,-4.9375,513,-484,285
1677,-2.929199219,-1.823486328,-4.938720703,514,-458,268
1682,-2.928466797,-1.823242188,-4.94140625,510,-485,274
1687,-2.926269531,-1.821777344,-4.946777344,500,-500,288
1692,-2.927734375,-1.823242188,-4.943603516,497,-461,255
1697,-2.928466797,-1.825195313,-4.945800781,517,-487,296
1702,-2.925048828,-1.823730469,-4.938232422,499,-495,284
1708,-2.931396484,-1.821777344,-4.944580078,515,-488,277
1713,-2.929199219,-1.827636719,-4.945800781,515,-486,284
1718,-2.927490234,-1.825683594,-4.942382813,517,-470,271
1723,-2.928466797,-1.828857422,-4.942871094,512,-489,309
1728,-2.929931641,-1.826171875,-4.939941406,509,-496,255
1733,-2.930664063,-1.826904297,-4.946289063,488,-484,275
1738,-2.931640625,-1.821044922,-4.940917969,529,-488,268
1743,-2.930908203,-1.826171875,-4.943603516,509,-486,269
1748,-2.927978516,-1.826416016,-4.944824219,505,-504,269
1753,-2.930175781,-1.825195313,-4.948486328,505,-509,307
1758,-2.928710938,-1.822753906,-4.934570313,509,-494,287
1763,-2.927734375,-1.828369141,-4.942626953,505,-481,265
1768,-2.927490234,-1.823974609,-4.939697266,508,-485,296
1773,-2.931152344,-1.821044922,-4.944091797,524,-480,279
1778,-2.926269531,-1.824951172,-4.940429688,530,-492,290
1783,-2.929199219,-1.825195313,-4.940673828,503,-486,289
1788,-2.928466797,-1.825683594,-4.953613281,506,-492,286
1793,-2.931640625,-1.828369141,-4.954101563,512,-468,292
1798,-2.931396484,-1.825439453,-4.945800781,503,-498,280
1803,-2.929931641,-1.822265625,-4.939697266,491,-477,252
1808,-2.928222656,-1.823242188,-4.946289063,520,-485,286
1813,-2.930664063,-1.826416016,-4.941650391,524,-474,272
1818,-2.930664063,-1.825683594,-4.940917969,549,-504,278
1823,-2.930175781,-1.824951172,-4.949462891,532,-496,278
1828,-2.925292969,-1.821777344,-4.941162109,523,-489,283
1833,-2.927734375,-1.823730469,-4.941162109,502,-482,280
1838,-2.928222656,-1.822265625,-4.940673828,526,-486,266
1844,-2.923095703,-1.827392578,-4.943603516,515,-499,272
1849,-2.929443359,-1.827636719,-4.939697266,496,-492,279
1854,-2.929443359,-1.828613281,-4.948974609,509,-458,287
1859,-2.927246094,-1.823486328,-4.947265625,516,-452,286
1864,-2.928955078,-1.824707031,-4.943847656,523,-470,288
1869,-2.929199219,-1.82421875,-4.940185547,511,-504,293
1874,-2.928710938,-1.819580078,-4.943359375,515,-497,276
1879,-2.925537109,-1.827392578,-4.942871094,535,-481,283
1884,-2.930908203,-1.824951172,-4.943847656,517,-508,296
1889,-2.927734375,-1.822998047,-4.948242188,505,-474,268
1894,-2.932128906,-1.827880859,-4.941650391,488,-497,293
1899,-2.932373047,-1.826660156,-4.941650391,506,-486,266
1904,-2.9296875,-1.821044922,-4.944091797,520,-490,265
1909,-2.927978516,-1.827148438,-4.947265625,503,-485,278
1914,-2.930175781,-1.825195313,-4.942382813,525,-506,286
1919,-2.927001953,-1.827636719,-4.942382813,511,-478,294
1924,-2.929443359,-1.822509766,-4.939453125,512,-486,302
1929,-2.925292969,-1.825439453,-4.936767578,524,-478,290
1934,-2.927246094,-1.823242188,-4.935546875,507,-488,286
1939,-2.929931641,-1.822021484,-4.940917969,488,-477,270
1944,-2.929199219,-1.823486328,-4.941894531,500,-494,282
1949,-2.932373047,-1.826171875,-4.944335938,521,-475,242
1954,-2.932373047,-1.831054688,-4.948486328,500,-480,287
1959,-2.927001953,-1.823486328,-4.940429688,514,-507,274
1964,-2.932617188,-1.826660156,-4.940429688,519,-484,265
1969,-2.925292969,-1.82421875,-4.941650391,499,-486,293
1974,-2.929199219,-1.824462891,-4.946533203,533,-456,267
1980,-2.928466797,-1.824707031,-4.9453125,515,-515,252
1985,-2.927001953,-1.82421875,-4.940185547,491,-487,286
1990,-2.929199219,-1.821777344,-4.948730469,524,-473,282
1995,-2.929443359,-1.823486328,-4.942382813,497,-459,300
2000,-2.928222656,-1.822998047,-4.939453125,518,-488,275
2005,-2.929931641,-1.822998047,-4.942138672,509,-485,280
2010,-2.930419922,-1.825683594,-4.941162109,503,-501,280
2015,-2.926757813,-1.822265625,-4.945068359,534,-474,297
2020,-2.930419922,-1.823242188,-4.945068359,496,-485,304
2025,-2.926757813,-1.821289063,-4.942382813,527,-478,286
2030,-2.927001953,-1.823974609,-4.946777344,516,-516,262
2035,-2.928222656,-1.822021484,-4.946289063,503,-459,254
2040,-2.928955078,-1.827636719,-4.944824219,502,-492,277
2045,-2.926269531,-1.824951172,-4.938476563,509,-499,256
2050,-2.929443359,-1.827148438,-4.939697266,517,-484,277
2055,-2.929931641,-1.824707031,-4.943359375,490,-488,265
2060,-2.924804688,-1.824951172,-4.941650391,516,-489,276
2065,-2.928955078,-1.823974609,-4.945068359,534,-473,301
2070,-2.929931641,-1.819091797,-4.945800781,525,-498,293
2075,-2.933349609,-1.821289063,-4.946289063,495,-488,278
2080,-2.929931641,-1.825683594,-4.943847656,503,-489,279
2085,-2.927734375,-1.826904297,-4.947753906,502,-493,268
2090,-2.930419922,-1.823486328,-4.942871094,493,-490,278
2095,-2.926757813,-1.826904297,-4.941162109,507,-501,277
2100,-2.929931641,-1.823486328,-4.940185547,525,-480,315
2105,-2.92578125,-1.824707031,-4.943603516,486,-482,272
2110,-2.927490234,-1.825683594,-4.942626953,503,-490,272
2116,-2.929443359,-1.827148438,-4.942626953,520,-475,266
2121,-2.933105469,-1.823730469,-4.94140625,519,-495,299
2126,-2.927734375,-1.825927734,-4.945068359,510,-488,279
2131,-2.926513672,-1.822998047,-4.944580078,521,-504,294
2136,-2.930664063,-1.823486328,-4.948974609,504,-474,250
2141,-2.930908203,-1.829833984,-4.94140625,500,-473,274
2146,-2.926513672,-1.825439453,-4.941894531,483,-473,260
2151,-2.928955078,-1.827392578,-4.936035156,502,-472,272
2156,-2.928466797,-1.828125,-4.943603516,508,-501,271
2161,-2.930664063,-1.824707031,-4.942382813,522,-484,293
2166,-2.930908203,-1.826660156,-4.940673828,520,-478,273
2171,-2.927734375,-1.825439453,-4.943115234,506,-501,286
2176,-2.927246094,-1.823974609,-4.941650391,513,-466,266
2181,-2.931640625,-1.825195313,-4.942626953,515,-497,290
2186,-2.931152344,-1.822753906,-4.945800781,511,-483,281
2191,-2.927490234,-1.827392578,-4.946533203,499,-482,263
2196,-2.928466797,-1.823486328,-4.943359375,488,-491,305
2201,-2.929199219,-1.824951172,-4.942382813,533,-473,275
2206,-2.925537109,-1.828125,-4.940185547,519,-491,291
2211,-2.929443359,-1.828369141,-4.94140625,532,-488,272
2216,-2.927978516,-1.822265625,-4.947753906,519,-476,296
2221,-2.932861328,-1.822265625,-4.940917969,508,-483,285
2226,-2.931396484,-1.826171875,-4.940673828,487,-502,298
2231,-2.932861328,-1.819580078,-4.943359375,503,-486,259
2236,-2.9296875,-1.822998047,-4.945068359,509,-469,273
2241,-2.927001953,-1.828125,-4.952392578,507,-484,287
2246,-2.929931641,-1.82421875,-4.946289063,508,-470,262
2252,-2.926757813,-1.822753906,-4.943115234,533,-478,284
2257,-2.932861328,-1.825927734,-4.943603516,517,-472,291
2262,-2.927978516,-1.825195313,-4.938964844,528,-455,284
2267,-2.928222656,-1.826416016,-4.941894531,497,-481,266
2272,-2.926513672,-1.823974609,-4.945800781,532,-490,266
2277,-2.927001953,-1.824707031,-4.940917969,493,-498,305
2282,-2.927246094,-1.826416016,-4.944091797,518,-483,257
2287,-2.930175781,-1.827148438,-4.947509766,501,-495,271
2292,-2.929199219,-1.822021484,-4.944091797,499,-472,267
2297,-2.927246094,-1.827880859,-4.941894531,518,-501,309
2302,-2.927978516,-1.825927734,-4.945556641,515,-494,276
2307,-2.928955078,-1.821777344,-4.946044922,516,-507,282
2312,-2.9296875,-1.826416016,-4.943603516,527,-475,302
2317,-2.928710938,-1.824951172,-4.947509766,514,-455,289
2322,-2.926513672,-1.823486328,-4.944824219,521,-493,287
2327,-2.927490234,-1.828125,-4.943847656,519,-499,281
2332,-2.932861328,-1.819580078,-4.942382813,496,-484,276
2337,-2.928955078,-1.825439453,-4.943115234,521,-489,285
2342,-2.928955078,-1.822265625,-4.938964844,510,-491,268
2347,-2.927490234,-1.819335938,-4.939453125,514,-484,276
2352,-2.932617188,-1.818603516,-4.943115234,522,-502,285
2357,-2.930175781,-1.822509766,-4.942382813,520,-465,263
2362,-2.929443359,-1.826171875,-4.94140625,545,-506,292
2367,-2.928222656,-1.820800781,-4.944824219,510,-477,278
2372,-2.928466797,-1.8203125,-4.945068359,517,-495,275
2377,-2.928466797,-1.824951172,-4.943603516,519,-492,268
2382,-2.930419922,-1.824951172,-4.9453125,492,-482,276
2388,-2.926269531,-1.823486328,-4.947509766,523,-484,302
2393,-2.935791016,-1.829833984,-4.941650391,523,-480,291
2398,-2.929443359,-1.825927734,-4.940673828,500,-484,301
2403,-2.928222656,-1.822265625,-4.947753906,518,-494,269
2408,-2.935791016,-1.823242188,-4.940185547,502,-479,289
2413,-2.9296875,-1.820800781,-4.939208984,517,-490,271
2418,-2.928710938,-1.823486328,-4.947509766,514,-493,283
2423,-2.926513672,-1.822021484,-4.943847656,501,-477,280
2428,-2.926025391,-1.828125,-4.939453125,518,-478,263
2433,-2.925292969,-1.825927734,-4.941162109,512,-476,289
2438,-2.9296875,-1.824707031,-4.937988281,508,-481,279
2443,-2.926513672,-1.828369141,-4.939453125,514,-478,267
2448,-2.932373047,-1.825927734,-4.941162109,493,-486,289
2453,-2.934082031,-1.822753906,-4.943115234,526,-494,279
2458,-2.930419922,-1.824707031,-4.946044922,508,-482,267
2463,-2.9296875,-1.822265625,-4.939208984,506,-497,284
2468,-2.932128906,-1.820556641,-4.946044922,511,-495,291
2473,-2.932861328,-1.825683594,-4.939453125,525,-485,288
2478,-2.926025391,-1.821533203,-4.941650391,517,-478,289
2483,-2.932373047,-1.825195313,-4.948730469,531,-480,296
2488,-2.927001953,-1.824462891,-4.94140625,507,-467,273
2493,-2.927978516,-1.82421875,-4.941650391,531,-498,264
2498,-2.933837891,-1.826660156,-4.937011719,517,-480,288
2503,-2.92578125,-1.822998047,-4.944091797,513,-465,306
2508,-2.929199219,-1.823974609,-4.942382813,512,-484,291
2513,-2.9296875,-1.824951172,-4.943115234,515,-480,278
2518,-2.928222656,-1.822509766,-4.944335938,501,-498,279
2524,-2.927734375,-1.823486328,-4.941650391,512,-493,266
2529,-2.9296875,-1.822753906,-4.940673828,528,-490,270
2534,-2.930419922,-1.824707031,-4.942138672,476,-491,287
2539,-2.929931641,-1.8203125,-4.938720703,509,-476,277
2544,-2.927490234,-1.822021484,-4.941894531,533,-482,287
2549,-2.923583984,-1.822509766,-4.949707031,509,-475,274
2554,-2.931396484,-1.82421875,-4.940673828,520,-496,307
2559,-2.929443359,-1.826660156,-4.944091797,514,-490,280
2564,-2.927978516,-1.823974609,-4.945800781,512,-472,277
2569,-2.928710938,-1.823974609,-4.939941406,492,-482,273
2574,-2.9296875,-1.828369141,-4.946533203,511,-489,278
2579,-2.931152344,-1.824707031,-4.938476563,499,-474,285
2584,-2.925537109,-1.823974609,-4.944335938,501,-489,278
2589,-2.928466797,-1.822021484,-4.940673828,515,-506,288
2594,-2.9296875,-1.82421875,-4.937988281,505,-512,270
2599,-2.930175781,-1.828369141,-4.943359375,490,-480,290
2604,-2.928955078,-1.825683594,-4.946044922,528,-468,280
2609,-2.931396484,-1.826416016,-4.939453125,507,-504,287
2614,-2.93359375,-1.822753906,-4.945800781,501,-460,289
2619,-2.928955078,-1.826660156,-4.947265625,510,-477,283
2624,-2.928710938,-1.823242188,-4.948486328,523,-481,279
2629,-2.925537109,-1.823974609,-4.940185547,530,-482,285
2634,-2.930419922,-1.822998047,-4.948486328,512,-490,263
2639,-2.927978516,-1.822753906,-4.94140625,503,-498,282
2644,-2.928466797,-1.827880859,-4.941894531,510,-474,310
2649,-2.927734375,-1.825683594,-4.943359375,521,-491,276
2654,-2.930419922,-1.823974609,-4.940185547,516,-491,273
2660,-2.928222656,-1.829101563,-4.946533203,532,-483,275
2665,-2.9296875,-1.821289063,-4.940917969,509,-484,288
2670,-2.930175781,-1.823974609,-4.9453125,524,-488,308
2675,-2.933349609,-1.826904297,-4.940429688,517,-474,308
2680,-2.928222656,-1.823486328,-4.944580078,525,-495,294
2685,-2.93359375,-1.823974609,-4.948242188,497,-500,290
2690,-2.932617188,-1.825439453,-4.9375,511,-506,290
2695,-2.928710938,-1.827392578,-4.943847656,515,-500,298
2700,-2.927001953,-1.823730469,-4.947753906,518,-478,270
2705,-2.929931641,-1.825439453,-4.942871094,510,-482,269
2710,-2.930908203,-1.82421875,-4.945800781,519,-460,244
2715,-2.931152344,-1.821533203,-4.936523438,510,-467,298
2720,-2.929199219,-1.825927734,-4.939697266,507,-481,288
2725,-2.93359375,-1.828369141,-4.940673828,520,-506,272
2730,-2.928466797,-1.823486328,-4.945068359,503,-497,285
2735,-2.930175781,-1.821289063,-4.941162109,500,-493,265
2740,-2.928955078,-1.826171875,-4.951416016,512,-486,283
2745,-2.929199219,-1.820800781,-4.945800781,512,-475,273
2750,-2.928222656,-1.829589844,-4.936767578,501,-481,283
2755,-2.931884766,-1.823242188,-4.943115234,496,-491,258
2760,-2.928222656,-1.828369141,-4.942382813,529,-480,261
2765,-2.926757813,-1.824707031,-4.945068359,517,-477,278
2770,-2.931884766,-1.817626953,-4.945068359,518,-477,282
2775,-2.926513672,-1.823486328,-4.935302734,516,-497,293
2780,-2.927734375,-1.822998047,-4.950195313,540,-489,312
2785,-2.930175781,-1.823486328,-4.945800781,509,-483,279
2790,-2.929199219,-1.822265625,-4.945800781,534,-500,277
2796,-2.925537109,-1.824951172,-4.942138672,522,-485,293
2801,-2.930419922,-1.825195313,-4.940673828,498,-491,253
2806,-2.925537109,-1.824951172,-4.937255859,524,-511,273
2811,-2.929443359,-1.823486328,-4.943847656,513,-498,303
2816,-2.937255859,-1.820800781,-4.938232422,521,-474,290
2821,-2.934570313,-1.822021484,-4.937011719,501,-500,304
2826,-2.929931641,-1.825927734,-4.938964844,523,-486,297
2831,-2.929443359,-1.821289063,-4.942871094,516,-480,270
2836,-2.927978516,-1.821777344,-4.943847656,508,-495,278
2841,-2.930419922,-1.819335938,-4.942626953,511,-508,293
2846,-2.928466797,-1.822265625,-4.942871094,518,-482,251
2851,-2.924316406,-1.824951172,-4.946289063,511,-492,266
2856,-2.928955078,-1.825195313,-4.946044922,521,-480,264
2861,-2.927001953,-1.825195313,-4.940673828,512,-502,269
2866,-2.930664063,-1.82421875,-4.948730469,503,-486,289
2871,-2.9296875,-1.824707031,-4.946533203,497,-497,254
2876,-2.927734375,-1.824462891,-4.944335938,504,-482,276
2881,-2.926513672,-1.822753906,-4.951171875,503,-481,268
2886,-2.930908203,-1.827148438,-4.942382813,522,-484,287
2891,-2.933349609,-1.822509766,-4.946777344,504,-489,277
2896,-2.930419922,-1.821289063,-4.941894531,506,-489,282
2901,-2.934814453,-1.823486328,-4.947265625,492,-482,276
2906,-2.929443359,-1.824951172,-4.938232422,485,-488,279
2911,-2.929199219,-1.821289063,-4.9375,518,-488,262
2916,-2.927978516,-1.824462891,-4.935058594,517,-493,305
2921,-2.930664063,-1.825439453,-4.946044922,527,-472,270
2926,-2.932373047,-1.827636719,-4.942871094,527,-469,297
2932,-2.928710938,-1.818847656,-4.943359375,527,-479,295
2937,-2.930419922,-1.824462891,-4.942382813,504,-473,280
2942,-2.927246094,-1.820068359,-4.949951172,505,-500,314
2947,-2.930175781,-1.825195313,-4.940917969,499,-490,279
2952,-2.928222656,-1.822509766,-4.945068359,493,-489,288
2957,-2.9296875,-1.825195313,-4.945556641,522,-480,276
2962,-2.932128906,-1.825439453,-4.937255859,521,-477,286
2967,-2.933349609,-1.822021484,-4.943359375,522,-511,300
2972,-2.924560547,-1.825683594,-4.942382813,528,-470,280
2977,-2.926025391,-1.823730469,-4.935791016,528,-495,296
2982,-2.923583984,-1.823242188,-4.946777344,500,-499,305
2987,-2.927246094,-1.822021484,-4.941894531,515,-471,238
2992,-2.924316406,-1.827392578,-4.941650391,514,-493,272
2997,-2.932861328,-1.825439453,-4.949707031,508,-478,278
3002,-2.931640625,-1.822998047,-4.952880859,507,-477,255
3007,-2.925537109,-1.828125,-4.942871094,503,-501,261
3012,-2.930419922,-1.818603516,-4.946777344,520,-497,283
3017,-2.93359375,-1.819335938,-4.942382813,540,-508,293
3022,-2.927001953,-1.825927734,-4.942626953,533,-513,274
3027,-2.928710938,-1.819824219,-4.945068359,514,-458,269
3032,-2.928710938,-1.823486328,-4.940429688,515,-506,284
3037,-2.92578125,-1.827392578,-4.939697266,484,-499,268
3042,-2.927734375,-1.824462891,-4.945800781,498,-489,274
3047,-2.934082031,-1.822021484,-4.941650391,475,-491,295
3052,-2.931396484,-1.825683594,-4.939453125,494,-478,278
3057,-2.928955078,-1.824707031,-4.937255859,506,-501,271
3062,-2.928955078,-1.82421875,-4.940429688,526,-474,271
3068,-2.931640625,-1.825927734,-4.947265625,495,-515,282
3073,-2.931396484,-1.82421875,-4.939453125,511,-499,318
3078,-2.928710938,-1.820800781,-4.947265625,517,-469,304
3083,-2.927490234,-1.820556641,-4.942138672,513,-508,267
3088,-2.929199219,-1.824462891,-4.94140625,508,-488,264
3093,-2.928955078,-1.823730469,-4.939697266,506,-474,272
3098,-2.931640625,-1.830810547,-4.94140625,512,-484,281
3103,-2.927001953,-1.822021484,-4.946289063,481,-501,282
3108,-2.931884766,-1.824707031,-4.944335938,522,-489,279
3113,-2.928222656,-1.825683594,-4.945068359,514,-482,292
3118,-2.930419922,-1.822753906,-4.944335938,519,-475,289
3123,-2.929443359,-1.826660156,-4.942138672,501,-497,291
3128,-2.928466797,-1.824951172,-4.945556641,514,-476,290
3133,-2.93359375,-1.823242188,-4.947021484,487,-486,274
3138,-2.929931641,-1.821777344,-4.946289063,497,-468,287
3143,-2.930664063,-1.827148438,-4.940185547,514,-508,285
3148,-2.926269531,-1.822753906,-4.94921875,504,-500,279
3153,-2.928955078,-1.827636719,-4.946533203,503,-490,279
3158,-2.932617188,-1.822021484,-4.943359375,515,-489,274
3163,-2.931640625,-1.826904297,-4.942871094,509,-507,295
3168,-2.929443359,-1.824951172,-4.941650391,501,-496,289
3173,-2.928466797,-1.825683594,-4.946777344,511,-482,286
3178,-2.933837891,-1.824951172,-4.942382813,518,-470,269
3183,-2.929443359,-1.819335938,-4.943115234,515,-473,272
3188,-2.927001953,-1.828125,-4.943115234,514,-481,294
3193,-2.928710938,-1.823242188,-4.940429688,494,-499,273
3198,-2.928466797,-1.828125,-4.953125,501,-477,298
3203,-2.927734375,-1.823242188,-4.935546875,510,-464,288
3209,-2.927001953,-1.824707031,-4.943115234,522,-481,277
3214,-2.928222656,-1.821044922,-4.949707031,510,-487,297
3219,-2.925537109,-1.823242188,-4.940429688,509,-478,277
3224,-2.92578125,-1.825927734,-4.945556641,515,-499,288
3229,-2.926757813,-1.824951172,-4.947509766,513,-479,274
3234,-2.928222656,-1.826171875,-4.946289063,500,-484,289
3239,-2.928955078,-1.826416016,-4.946533203,532,-483,275
3244,-2.929199219,-1.82421875,-4.940917969,511,-486,268
3249,-2.929199219,-1.824462891,-4.941162109,525,-498,281
3254,-2.9296875,-1.824707031,-4.942138672,514,-478,268
3259,-2.926025391,-1.826416016,-4.940917969,510,-483,287
3264,-2.931396484,-1.823242188,-4.948730469,532,-468,268
3269,-2.928466797,-1.824462891,-4.94921875,512,-500,277
3274,-2.931640625,-1.826171875,-4.93359375,501,-485,276
3279,-2.931396484,-1.824951172,-4.939697266,492,-489,283
3284,-2.928222656,-1.82421875,-4.949707031,496,-482,277
3289,-2.929443359,-1.825195313,-4.940429688,523,-485,274
3294,-2.923583984,-1.823486328,-4.940673828,511,-479,289
3299,-2.926269531,-1.825927734,-4.948486328,501,-456,287
3304,-2.925537109,-1.824462891,-4.941162109,504,-504,294
3309,-2.928955078,-1.818603516,-4.938720703,514,-465,302
3314,-2.927734375,-1.825927734,-4.940673828,514,-468,269
3319,-2.9296875,-1.825683594,-4.942626953,511,-489,269
3324,-2.931396484,-1.829589844,-4.935546875,506,-481,302
3329,-2.928955078,-1.82421875,-4.945068359,498,-463,285
3334,-2.930175781,-1.822509766,-4.947021484,521,-477,277
3339,-2.931640625,-1.824707031,-4.942138672,521,-490,304
3345,-2.930175781,-1.822021484,-4.939208984,525,-500,277
3350,-2.929199219,-1.824951172,-4.946289063,481,-490,294
3355,-2.933837891,-1.826416016,-4.944091797,492,-498,297
3360,-2.9296875,-1.826904297,-4.939697266,514,-485,277
3365,-2.927246094,-1.823486328,-4.936523438,496,-491,269
3370,-2.929199219,-1.827880859,-4.937255859,496,-484,238
3375,-2.930664063,-1.824462891,-4.940185547,507,-480,262
3380,-2.932128906,-1.821533203,-4.942871094,514,-482,288
3385,-2.928710938,-1.823486328,-4.944580078,506,-490,297
3390,-2.928466797,-1.822509766,-4.9375,516,-477,277
3395,-2.930908203,-1.828857422,-4.946044922,529,-491,271
3400,-2.927490234,-1.825439453,-4.952392578,517,-481,305
3405,-2.927734375,-1.830322266,-4.942138672,525,-498,288
3410,-2.929443359,-1.829101563,-4.944580078,503,-471,262
3415,-2.927490234,-1.824462891,-4.943359375,502,-481,271
3420,-2.930419922,-1.823730469,-4.939208984,528,-495,293
3425,-2.930664063,-1.828369141,-4.945556641,503,-484,302
3430,-2.92578125,-1.824462891,-4.947509766,520,-467,296
3435,-2.927734375,-1.823974609,-4.944580078,514,-485,320
3440,-2.928222656,-1.829101563,-4.938476563,526,-472,273
3445,-2.930419922,-1.820800781,-4.943115234,507,-483,289
3450,-2.930664063,-1.818847656,-4.9453125,515,-490,284
3455,-2.932128906,-1.823730469,-4.944091797,517,-483,287
3460,-2.928955078,-1.827636719,-4.939941406,528,-494,267
3465,-2.930419922,-1.82421875,-4.946289063,501,-488,280
3470,-2.931152344,-1.826660156,-4.942382813,497,-468,282
3475,-2.926269531,-1.825195313,-4.941162109,496,-486,305
3481,-2.929931641,-1.8203125,-4.938964844,494,-499,274
3486,-2.931152344,-1.831787109,-4.941162109,509,-483,270
3491,-2.931396484,-1.822753906,-4.940185547,525,-491,293
3496,-2.930419922,-1.830810547,-4.946044922,502,-491,278
3501,-2.927734375,-1.824462891,-4.946044922,520,-483,314
3506,-2.926513672,-1.828369141,-4.939697266,506,-474,259
3511,-2.928466797,-1.819824219,-4.942138672,487,-477,274
3516,-2.935058594,-1.822753906,-4.948730469,492,-459,302
3521,-2.926025391,-1.821533203,-4.939453125,537,-488,268
3526,-2.928955078,-1.824951172,-4.946533203,498,-484,254
3531,-2.927246094,-1.827636719,-4.948974609,516,-494,287
3536,-2.927490234,-1.825927734,-4.952148438,504,-483,276
3541,-2.926513672,-1.825927734,-4.940673828,531,-491,300
3546,-2.930175781,-1.822265625,-4.950439453,509,-496,289
3551,-2.928955078,-1.818359375,-4.941894531,488,-485,266
3556,-2.929931641,-1.827636719,-4.942626953,514,-499,293
3561,-2.928466797,-1.823486328,-4.942871094,525,-477,288
3566,-2.934570313,-1.824462891,-4.943115234,503,-493,279
3571,-2.927734375,-1.826171875,-4.946044922,525,-491,290
3576,-2.928222656,-1.823486328,-4.940673828,508,-491,295
3581,-2.930175781,-1.82421875,-4.947265625,498,-492,300
3586,-2.928710938,-1.822265625,-4.946289063,490,-492,280
3591,-2.926025391,-1.830078125,-4.942626953,523,-484,298
3596,-2.929931641,-1.82421875,-4.944335938,524,-495,304
3601,-2.9296875,-1.823974609,-4.944335938,501,-469,280
3606,-2.923095703,-1.826416016,-4.939941406,521,-480,270
3611,-2.927978516,-1.824951172,-4.941162109,516,-474,269
3617,-2.926757813,-1.822998047,-4.948486328,496,-501,271
3622,-2.930419922,-1.822509766,-4.946533203,499,-492,280
3627,-2.926025391,-1.825195313,-4.934570313,517,-473,279
3632,-2.927001953,-1.825439453,-4.940429688,494,-508,296
3637,-2.923828125,-1.827148438,-4.9453125,528,-487,273
3642,-2.928710938,-1.8203125,-4.945800781,518,-498,294
3647,-2.927001953,-1.824707031,-4.94921875,488,-489,274
3652,-2.929443359,-1.828613281,-4.942382813,480,-485,266
3657,-2.928466797,-1.825195313,-4.935791016,514,-502,276
3662,-2.928955078,-1.822509766,-4.950195313,509,-512,254
3667,-2.9296875,-1.824951172,-4.946777344,505,-486,282
3672,-2.930419922,-1.825439453,-4.940673828,506,-507,263
3677,-2.928466797,-1.82421875,-4.94140625,521,-474,280
3682,-2.927490234,-1.822265625,-4.947753906,522,-496,308
3687,-2.927246094,-1.827392578,-4.942626953,516,-492,303
3692,-2.932373047,-1.821289063,-4.940673828,510,-497,288
3697,-2.931640625,-1.824951172,-4.938964844,494,-479,290
3702,-2.932373047,-1.831787109,-4.938476563,530,-488,270
3707,-2.929199219,-1.826904297,-4.946289063,510,-477,257
3712,-2.932373047,-1.825927734,-4.953369141,517,-457,266
3717,-2.931152344,-1.821777344,-4.943359375,524,-473,284
3722,-2.930419922,-1.826904297,-4.943115234,529,-490,288
3727,-2.929443359,-1.821777344,-4.943847656,515,-465,278
3732,-2.927246094,-1.822509766,-4.944335938,517,-490,308
3737,-2.92578125,-1.822021484,-4.940917969,512,-482,280
3742,-2.930908203,-1.822998047,-4.941162109,528,-493,279
3747,-2.923339844,-1.823486328,-4.944335938,500,-468,265
3753,-2.929199219,-1.821289063,-4.945800781,502,-492,285
3758,-2.927490234,-1.824951172,-4.940917969,494,-468,265
3763,-2.926025391,-1.82421875,-4.947021484,531,-478,274
3768,-2.931640625,-1.82421875,-4.943359375,528,-493,282
3773,-2.927734375,-1.830322266,-4.941162109,506,-476,289
3778,-2.930175781,-1.824951172,-4.944580078,508,-470,289
3783,-2.930419922,-1.822265625,-4.951660156,503,-497,293
3788,-2.92578125,-1.825195313,-4.937988281,510,-481,267
3793,-2.9296875,-1.823730469,-4.944335938,509,-494,266
3798,-2.927490234,-1.822265625,-4.946533203,496,-479,254
3803,-2.935058594,-1.829101563,-4.943359375,509,-469,271
3808,-2.934326172,-1.827392578,-4.9453125,502,-491,265
3813,-2.927246094,-1.825195313,-4.947265625,523,-482,287
3818,-2.928222656,-1.825927734,-4.945556641,509,-487,259
3823,-2.930908203,-1.827392578,-4.936279297,517,-503,284
3828,-2.930664063,-1.823242188,-4.9453125,510,-473,323
3833,-2.926025391,-1.823730469,-4.943359375,504,-475,283
3838,-2.926757813,-1.824707031,-4.941162109,529,-486,304
3843,-2.9296875,-1.819335938,-4.950927734,511,-463,282
3848,-2.928466797,-1.825683594,-4.94921875,501,-509,274
3853,-2.928710938,-1.82421875,-4.940673828,486,-491,273
3858,-2.929199219,-1.820800781,-4.945556641,505,-495,269
3863,-2.928955078,-1.822509766,-4.9453125,492,-492,286
3868,-2.932617188,-1.824462891,-4.94140625,510,-463,283
3873,-2.930908203,-1.822021484,-4.943603516,520,-498,277
3878,-2.9296875,-1.826171875,-4.942382813,514,-489,299
3883,-2.927490234,-1.817138672,-4.946044922,523,-487,270
3889,-2.927246094,-1.826171875,-4.942138672,506,-485,262
3894,-2.926269531,-1.824707031,-4.940185547,516,-496,277
3899,-2.928222656,-1.826660156,-4.946777344,511,-480,243
3904,-2.926513672,-1.829345703,-4.942382813,507,-505,253
3909,-2.926269531,-1.824707031,-4.94140625,499,-481,279
3914,-2.929931641,-1.822021484,-4.945800781,496,-482,290
3919,-2.931640625,-1.825683594,-4.945800781,521,-507,285
3924,-2.928955078,-1.82421875,-4.9375,536,-479,295
3929,-2.931396484,-1.821777344,-4.945068359,551,-474,284
3934,-2.928222656,-1.827148438,-4.943359375,496,-492,284
3939,-2.9296875,-1.823974609,-4.940185547,515,-490,290
3944,-2.927001953,-1.822998047,-4.943847656,522,-491,278
3949,-2.928222656,-1.825195313,-4.937255859,486,-488,280
3954,-2.930175781,-1.828125,-4.942138672,508,-486,278
3959,-2.927978516,-1.822753906,-4.946289063,518,-481,280
3964,-2.9296875,-1.827148438,-4.944335938,509,-499,281
3969,-2.931396484,-1.823242188,-4.941650391,525,-484,280
3974,-2.930419922,-1.825683594,-4.946289063,538,-485,307
3979,-2.927246094,-1.823974609,-4.947265625,509,-468,287
3984,-2.930664063,-1.821289063,-4.940429688,493,-485,278
3989,-2.927490234,-1.823730469,-4.940673828,509,-502,285
3994,-2.926513672,-1.82421875,-4.947265625,512,-481,271
3999,-2.926269531,-1.829345703,-4.941894531,510,-496,294
4004,-2.931884766,-1.824707031,-4.942382813,501,-500,278
4009,-2.930419922,-1.826171875,-4.947021484,517,-483,286
4014,-2.926757813,-1.824707031,-4.9375,516,-479,271
4019,-2.929199219,-1.823486328,-4.936035156,513,-487,310
4025,-2.928222656,-1.820068359,-4.936279297,521,-485,298
4030,-2.938232422,-1.821533203,-4.949462891,515,-494,293
4035,-2.932128906,-1.822021484,-4.937744141,494,-468,286
4040,-2.927490234,-1.828125,-4.946044922,500,-496,280
4045,-2.928955078,-1.822998047,-4.947265625,499,-483,288
4050,-2.928710938,-1.827392578,-4.943359375,511,-486,277
4055,-2.931152344,-1.825195313,-4.944580078,508,-490,288
4060,-2.928955078,-1.823242188,-4.941162109,505,-496,281
4065,-2.92578125,-1.827880859,-4.941650391,501,-488,280
4070,-2.929199219,-1.826171875,-4.940917969,517,-492,300
4075,-2.927490234,-1.821777344,-4.94921875,524,-498,276
4080,-2.929931641,-1.824462891,-4.945556641,515,-478,278
4085,-2.929931641,-1.822509766,-4.941650391,523,-504,286
4090,-2.929931641,-1.821044922,-4.948242188,502,-488,263
4095,-2.924316406,-1.821289063,-4.939697266,511,-489,277
4100,-2.932373047,-1.823974609,-4.942871094,481,-470,278
4105,-2.929199219,-1.822509766,-4.940185547,526,-488,287
4110,-2.928710938,-1.824951172,-4.941650391,525,-477,283
4115,-2.932617188,-1.826416016,-4.941162109,503,-474,297
4120,-2.925537109,-1.822998047,-4.947021484,529,-478,295
4125,-2.925048828,-1.822265625,-4.946044922,506,-484,290
4130,-2.927246094,-1.824707031,-4.943115234,501,-490,293
4135,-2.9296875,-1.826904297,-4.947753906,500,-485,275
4140,-2.931640625,-1.821533203,-4.942626953,490,-473,280
4145,-2.928955078,-1.819824219,-4.956787109,499,-487,270
4150,-2.930664063,-1.822998047,-4.941162109,489,-475,255
4155,-2.93359375,-1.826904297,-4.948242188,494,-503,283
4161,-2.930908203,-1.823486328,-4.950439453,519,-476,302
4166,-2.930664063,-1.828369141,-4.941162109,504,-496,282
4171,-2.924316406,-1.826416016,-4.946777344,517,-482,270
4176,-2.928222656,-1.827636719,-4.950683594,517,-501,290
4181,-2.929443359,-1.822998047,-4.937744141,525,-476,295
4186,-2.927001953,-1.825195313,-4.944091797,511,-492,304
4191,-2.927490234,-1.827392578,-4.943359375,518,-490,276
4196,-2.926025391,-1.825927734,-4.942138672,491,-470,288
4201,-2.930419922,-1.825683594,-4.941894531,500,-491,272
4206,-2.931640625,-1.827148438,-4.943115234,514,-510,293
4211,-2.928710938,-1.821777344,-4.941894531,513,-469,278
4216,-2.925292969,-1.820068359,-4.946533203,506,-483,271
4221,-2.927978516,-1.825195313,-4.946289063,523,-481,272
4226,-2.927978516,-1.820800781,-4.950439453,540,-483,260
4231,-2.928955078,-1.823242188,-4.942138672,518,-487,309
4236,-2.933105469,-1.827636719,-4.94140625,507,-503,290
4241,-2.927490234,-1.824707031,-4.945068359,529,-489,275
4246,-2.927246094,-1.822753906,-4.951416016,506,-483,273
4251,-2.9296875,-1.827636719,-4.946777344,517,-483,296
4256,-2.933349609,-1.825683594,-4.937255859,506,-481,279
4261,-2.931152344,-1.819580078,-4.939697266,517,-467,283
4266,-2.9296875,-1.827148438,-4.950927734,490,-482,290
4271,-2.930175781,-1.822998047,-4.937988281,519,-501,271
4276,-2.933349609,-1.822021484,-4.949951172,498,-463,283
4281,-2.928222656,-1.829101563,-4.943359375,500,-502,265
4286,-2.930175781,-1.824707031,-4.942138672,523,-495,284
4291,-2.927978516,-1.819091797,-4.948486328,499,-461,276
4297,-2.924072266,-1.825439453,-4.945556641,510,-481,286
4302,-2.931396484,-1.826660156,-4.940429688,508,-488,302
4307,-2.929931641,-1.825927734,-4.954345703,523,-487,293
4312,-2.93359375,-1.826660156,-4.946533203,502,-450,265
4317,-2.931884766,-1.825195313,-4.944335938,519,-480,297
4322,-2.928955078,-1.826660156,-4.945556641,512,-477,278
4327,-2.929199219,-1.818847656,-4.947998047,516,-462,299
4332,-2.929443359,-1.823730469,-4.948486328,505,-501,251
4337,-2.928710938,-1.828857422,-4.953369141,504,-484,269
4342,-2.927246094,-1.823730469,-4.943603516,539,-480,303
4347,-2.9296875,-1.822021484,-4.939208984,489,-497,276
4352,-2.933349609,-1.822509766,-4.947021484,518,-479,272
4357,-2.927490234,-1.822998047,-4.947509766,497,-470,310
4362,-2.928955078,-1.822265625,-4.942626953,498,-491,289
4367,-2.9296875,-1.829101563,-4.944091797,506,-458,267
4372,-2.928710938,-1.824707031,-4.939941406,530,-484,295
4377,-2.930175781,-1.826660156,-4.942626953,506,-483,284
4382,-2.931152344,-1.826171875,-4.94140625,499,-469,282
4387,-2.930175781,-1.824707031,-4.938964844,524,-487,292
4392,-2.932373047,-1.821777344,-4.942626953,520,-460,287
4397,-2.928222656,-1.823974609,-4.942138672,503,-479,276
4402,-2.929199219,-1.822998047,-4.941162109,541,-482,292
4407,-2.929931641,-1.82421875,-4.945800781,532,-492,295
4412,-2.927734375,-1.823486328,-4.948974609,513,-479,301
4417,-2.928222656,-1.830078125,-4.938720703,502,-485,279
4422,-2.931152344,-1.821533203,-4.941162109,494,-502,285
4427,-2.929931641,-1.823486328,-4.941894531,525,-480,292
4433,-2.929931641,-1.822021484,-4.944335938,511,-494,268
4438,-2.926513672,-1.829101563,-4.943603516,523,-498,301
4443,-2.928710938,-1.822753906,-4.941650391,516,-486,298
4448,-2.926025391,-1.826171875,-4.942138672,514,-490,305
4453,-2.930175781,-1.824462891,-4.941650391,525,-509,259
4458,-2.931884766,-1.821289063,-4.946289063,500,-466,266
4463,-2.931640625,-1.823486328,-4.94140625,517,-463,292
4468,-2.928955078,-1.821289063,-4.944335938,516,-489,274
4473,-2.928466797,-1.827880859,-4.941162109,508,-494,286
4478,-2.932128906,-1.824951172,-4.951660156,523,-497,304
4483,-2.925537109,-1.827148438,-4.950927734,504,-500,285
4488,-2.929199219,-1.824462891,-4.942626953,518,-490,302
4493,-2.927001953,-1.822509766,-4.942138672,523,-492,296
4498,-2.932373047,-1.825927734,-4.939208984,513,-515,272
4503,-2.934326172,-1.824951172,-4.938232422,518,-494,297
4508,-2.932861328,-1.826904297,-4.938476563,504,-493,294
4513,-2.930908203,-1.822021484,-4.947998047,487,-470,265
4518,-2.929931641,-1.824707031,-4.941162109,526,-481,297
4523,-2.928466797,-1.82421875,-4.940917969,509,-474,284
4528,-2.927978516,-1.824951172,-4.940673828,533,-490,277
4533,-2.927001953,-1.824951172,-4.942138672,492,-480,289
4538,-2.932617188,-1.826660156,-4.940429688,546,-493,284
4543,-2.927734375,-1.826171875,-4.951904297,511,-490,296
4548,-2.931640625,-1.825195313,-4.948486328,500,-471,307
4553,-2.932861328,-1.826416016,-4.942626953,525,-498,289
4558,-2.925537109,-1.821533203,-4.942871094,484,-481,278
4563,-2.926513672,-1.823974609,-4.940185547,498,-496,241
4569,-2.923828125,-1.827880859,-4.941894531,522,-484,282
4574,-2.924804688,-1.825195313,-4.944335938,528,-487,292
4579,-2.932617188,-1.828125,-4.944091797,525,-476,284
4584,-2.928466797,-1.826416016,-4.944335938,504,-478,284
4589,-2.927490234,-1.821044922,-4.941894531,530,-491,283
4594,-2.927978516,-1.826660156,-4.9375,519,-498,283
4599,-2.9296875,-1.825683594,-4.941162109,513,-515,289
4604,-2.928466797,-1.824462891,-4.942382813,504,-490,293
4609,-2.928955078,-1.825195313,-4.944824219,511,-509,262
4614,-2.930664063,-1.828369141,-4.942382813,493,-473,277
4619,-2.933105469,-1.829589844,-4.941650391,480,-502,270
4624,-2.930908203,-1.822265625,-4.946777344,504,-480,285
4629,-2.930419922,-1.828857422,-4.935791016,512,-478,278
4634,-2.927001953,-1.82421875,-4.934570313,513,-486,294
4639,-2.924804688,-1.825439453,-4.946044922,520,-489,299
4644,-2.928222656,-1.82421875,-4.940673828,512,-472,266
4649,-2.930664063,-1.822998047,-4.937988281,510,-508,284
4654,-2.928710938,-1.826171875,-4.939453125,508,-477,273
4659,-2.929931641,-1.821533203,-4.942138672,497,-468,267
4664,-2.929443359,-1.826904297,-4.936279297,481,-484,266
4669,-2.92578125,-1.829345703,-4.937255859,524,-507,284
4674,-2.922851563,-1.823730469,-4.94140625,522,-478,269
4679,-2.927978516,-1.827148438,-4.939697266,498,-477,300
4684,-2.927734375,-1.828857422,-4.944091797,513,-464,283
4689,-2.927246094,-1.825439453,-4.946777344,514,-488,304
4694,-2.926757813,-1.819335938,-4.94140625,509,-487,296
4699,-2.926025391,-1.827880859,-4.945068359,533,-475,271
4705,-2.930175781,-1.821533203,-4.938476563,516,-503,276
4710,-2.930175781,-1.822509766,-4.942138672,490,-486,266
4715,-2.9296875,-1.828369141,-4.944335938,510,-477,258
4720,-2.927978516,-1.825683594,-4.937988281,514,-510,298
4725,-2.9296875,-1.819580078,-4.947753906,514,-484,290
4730,-2.929443359,-1.822753906,-4.942382813,523,-483,310
4735,-2.928466797,-1.827148438,-4.940429688,527,-488,285
4740,-2.927001953,-1.821289063,-4.946044922,526,-484,288
4745,-2.928955078,-1.821777344,-4.943359375,492,-498,289
4750,-2.930419922,-1.823242188,-4.939208984,503,-478,284
4755,-2.9296875,-1.823974609,-4.946289063,494,-474,271
4760,-2.928222656,-1.826171875,-4.937744141,489,-487,274
4765,-2.931152344,-1.823242188,-4.943847656,510,-502,283
4770,-2.931640625,-1.825683594,-4.938964844,515,-461,272
4775,-2.928222656,-1.826416016,-4.947021484,528,-472,285
4780,-2.928222656,-1.822998047,-4.941894531,536,-485,304
4785,-2.927001953,-1.826416016,-4.941650391,512,-477,275
4790,-2.924560547,-1.826904297,-4.944580078,510,-491,279
4795,-2.926513672,-1.826904297,-4.937988281,509,-483,289
4800,-2.929199219,-1.82421875,-4.943603516,518,-482,295
4805,-2.927978516,-1.825683594,-4.9453125,508,-468,271
4810,-2.932617188,-1.823730469,-4.945800781,496,-481,277
4815,-2.928222656,-1.823486328,-4.945556641,506,-506,265
4820,-2.927734375,-1.82421875,-4.943847656,524,-495,297
4825,-2.930419922,-1.816162109,-4.944335938,502,-492,274
4830,-2.928955078,-1.824707031,-4.943603516,508,-493,294
4835,-2.931152344,-1.824951172,-4.931640625,522,-477,263
4841,-2.927246094,-1.823730469,-4.944824219,510,-475,291
4846,-2.932373047,-1.826416016,-4.947021484,509,-485,284
4851,-2.929931641,-1.823486328,-4.937011719,483,-503,280
4856,-2.930664063,-1.823974609,-4.938232422,513,-465,286
4861,-2.930664063,-1.820800781,-4.941162109,506,-480,284
4866,-2.930419922,-1.826904297,-4.941894531,519,-485,297
4871,-2.9296875,-1.821044922,-4.943359375,512,-496,286
4876,-2.927978516,-1.822998047,-4.946044922,501,-471,287
4881,-2.929443359,-1.824707031,-4.942871094,526,-478,286
4886,-2.9296875,-1.820068359,-4.943847656,513,-469,287
4891,-2.930419922,-1.825439453,-4.948730469,508,-471,283
4896,-2.928222656,-1.822509766,-4.939697266,521,-484,276
4901,-2.927490234,-1.829833984,-4.939697266,511,-514,258
4906,-2.929199219,-1.826660156,-4.940185547,491,-477,306
4911,-2.930908203,-1.823486328,-4.945068359,495,-504,274
4916,-2.930419922,-1.826171875,-4.945556641,526,-480,266
4921,-2.927978516,-1.823730469,-4.945800781,512,-466,276
4926,-2.931640625,-1.82421875,-4.943847656,501,-487,294
4931,-2.9296875,-1.823730469,-4.942871094,510,-464,304
4936,-2.928222656,-1.821044922,-4.939208984,497,-494,293
4941,-2.928466797,-1.819091797,-4.941650391,499,-474,280
4946,-2.928222656,-1.82421875,-4.948730469,499,-482,287
4951,-2.9296875,-1.827636719,-4.941650391,518,-500,282
4956,-2.930908203,-1.822265625,-4.949951172,512,-473,268
4961,-2.930908203,-1.826416016,-4.943847656,511,-461,275
4966,-2.927734375,-1.824462891,-4.940185547,524,-487,311
4971,-2.932617188,-1.823486328,-4.943603516,525,-492,301
4977,-2.928466797,-1.822998047,-4.940185547,522,-481,301
4982,-2.925292969,-1.825439453,-4.940917969,503,-488,278
4987,-2.926757813,-1.824462891,-4.940185547,509,-475,269
4992,-2.926269531,-1.819824219,-4.942626953,508,-458,266
4997,-2.932373047,-1.822753906,-4.952148438,486,-483,266
5002,-2.929931641,-1.825439453,-4.940185547,497,-497,292
5007,-2.931396484,-1.825195313,-4.946777344,516,-469,287
5012,-2.932617188,-1.825683594,-4.945068359,499,-488,293
5017,-2.928222656,-1.827636719,-4.942871094,522,-514,282
5022,-2.9296875,-1.823486328,-4.951171875,526,-488,284
5027,-2.929199219,-1.821777344,-4.941894531,504,-464,275
5032,-2.929199219,-1.825683594,-4.937744141,517,-491,273
5037,-2.928466797,-1.825683594,-4.9453125,522,-501,278
5042,-2.930419922,-1.820068359,-4.943115234,507,-498,268
5047,-2.928955078,-1.821777344,-4.940673828,506,-487,260
5052,-2.930419922,-1.824707031,-4.938232422,495,-487,257
5057,-2.929931641,-1.822021484,-4.945800781,514,-470,280
5062,-2.931152344,-1.826416016,-4.943847656,492,-484,308
5067,-2.930664063,-1.818847656,-4.939208984,539,-474,281
5072,-2.931152344,-1.823486328,-4.944335938,529,-468,266
5077,-2.929931641,-1.826660156,-4.938720703,511,-516,296
5082,-2.925048828,-1.822265625,-4.943847656,512,-480,287
5087,-2.928710938,-1.824462891,-4.9453125,486,-492,278
5092,-2.927490234,-1.825683594,-4.941894531,499,-469,276
5097,-2.932128906,-1.828369141,-4.936279297,512,-479,275
5102,-2.928222656,-1.822509766,-4.945556641,510,-498,279
5107,-2.929931641,-1.825927734,-4.951660156,485,-484,269
5113,-2.926025391,-1.822998047,-4.944580078,505,-501,266
5118,-2.9296875,-1.827148438,-4.945800781,508,-462,266
5123,-2.929931641,-1.824951172,-4.945556641,515,-504,292
5128,-2.927246094,-1.823730469,-4.939697266,524,-466,287
5133,-2.929199219,-1.823974609,-4.947509766,522,-500,295
5138,-2.925292969,-1.823730469,-4.947021484,487,-495,266
5143,-2.927978516,-1.826416016,-4.944091797,521,-486,286
5148,-2.927246094,-1.825195313,-4.946044922,502,-500,279
5153,-2.928955078,-1.826660156,-4.941650391,530,-502,257
5158,-2.926757813,-1.825927734,-4.94140625,513,-469,284
5163,-2.927001953,-1.822753906,-4.944580078,515,-478,285
5168,-2.927001953,-1.825683594,-4.944335938,532,-497,276
5173,-2.929931641,-1.820800781,-4.941162109,494,-490,292
5178,-2.926025391,-1.822998047,-4.9453125,509,-471,275
5183,-2.929931641,-1.821777344,-4.94140625,508,-481,286
5188,-2.928955078,-1.823974609,-4.947753906,497,-487,293
5193,-2.928222656,-1.825439453,-4.946777344,511,-483,265
5198,-2.928710938,-1.825927734,-4.941162109,492,-493,291
5203,-2.927490234,-1.821533203,-4.941650391,510,-509,308
5208,-2.928466797,-1.826904297,-4.943115234,521,-480,244
5213,-2.931884766,-1.832519531,-4.940429688,500,-492,278
5218,-2.930419922,-1.822753906,-4.946289063,514,-472,315
5223,-2.932128906,-1.821044922,-4.947509766,502,-453,280
5228,-2.927490234,-1.818359375,-4.946289063,509,-474,287
5233,-2.928466797,-1.817626953,-4.938232422,515,-490,303
5238,-2.927978516,-1.821533203,-4.944824219,505,-488,286
5243,-2.921630859,-1.823974609,-4.942871094,498,-484,262
5249,-2.929931641,-1.823242188,-4.938232422,517,-508,283
5254,-2.928955078,-1.825195313,-4.945068359,495,-475,260
5259,-2.927490234,-1.824951172,-4.942138672,526,-480,279
5264,-2.930175781,-1.824951172,-4.943603516,518,-490,317
5269,-2.9296875,-1.823974609,-4.947753906,523,-498,300
5274,-2.927490234,-1.821044922,-4.94140625,505,-477,282
5279,-2.924560547,-1.829101563,-4.947998047,498,-486,282
5284,-2.927001953,-1.825195313,-4.940917969,530,-488,281
5289,-2.929931641,-1.822753906,-4.952392578,506,-492,299
5294,-2.928222656,-1.823730469,-4.94140625,511,-476,270
5299,-2.927734375,-1.824462891,-4.948486328,494,-487,311
5304,-2.928466797,-1.819824219,-4.945068359,493,-473,271
5309,-2.93359375,-1.825683594,-4.946044922,499,-496,291
5314,-2.929199219,-1.826660156,-4.940673828,516,-491,298
5319,-2.926269531,-1.822265625,-4.946289063,512,-497,265
5324,-2.931152344,-1.825195313,-4.939697266,500,-484,273
5329,-2.932861328,-1.820556641,-4.948486328,525,-500,269
5334,-2.926513672,-1.827636719,-4.941650391,516,-484,279
5339,-2.928466797,-1.820556641,-4.941650391,518,-473,291
5344,-2.928955078,-1.823730469,-4.94140625,505,-471,268
5349,-2.930664063,-1.825195313,-4.941162109,529,-480,292
5354,-2.931884766,-1.818847656,-4.945068359,491,-465,296
5359,-2.927246094,-1.822265625,-4.945556641,500,-492,269
5364,-2.927246094,-1.824707031,-4.946044922,499,-495,294
5369,-2.930175781,-1.820556641,-4.941894531,493,-473,276
5374,-2.928955078,-1.823242188,-4.947509766,515,-486,267
5379,-2.931884766,-1.825439453,-4.941894531,511,-490,276
5385,-2.932617188,-1.828125,-4.946777344,536,-470,297
5390,-2.928955078,-1.826416016,-4.944824219,506,-486,295
5395,-2.928222656,-1.827148438,-4.937255859,514,-499,274
5400,-2.929443359,-1.826660156,-4.944335938,503,-481,286
5405,-2.928222656,-1.822265625,-4.937988281,511,-493,267
5410,-2.929931641,-1.822265625,-4.948242188,493,-494,272
5415,-2.932373047,-1.823974609,-4.939697266,510,-491,283
5420,-2.928955078,-1.823242188,-4.94140625,518,-494,288
5425,-2.931884766,-1.822753906,-4.941650391,500,-468,292
5430,-2.932617188,-1.823242188,-4.9453125,502,-494,290
5435,-2.929443359,-1.822265625,-4.947021484,512,-479,272
5440,-2.928222656,-1.827148438,-4.942871094,510,-468,297
5445,-2.927978516,-1.824707031,-4.938964844,515,-511,267
5450,-2.9296875,-1.826416016,-4.940673828,515,-502,296
5455,-2.928222656,-1.824707031,-4.938476563,501,-466,283
5460,-2.926757813,-1.827148438,-4.942626953,497,-502,289
5465,-2.930664063,-1.82421875,-4.938720703,517,-480,312
5470,-2.9296875,-1.825439453,-4.942138672,512,-489,261
5475,-2.929199219,-1.822021484,-4.944091797,495,-473,284
5480,-2.928955078,-1.829589844,-4.946777344,531,-472,313
5485,-2.927978516,-1.826904297,-4.943603516,505,-483,303
5490,-2.928955078,-1.822998047,-4.943115234,511,-490,287
5495,-2.926513672,-1.821289063,-4.941162109,495,-507,289
5500,-2.9296875,-1.822265625,-4.945068359,525,-514,286
5505,-2.930419922,-1.818603516,-4.944580078,509,-489,278
5510,-2.928710938,-1.826660156,-4.942382813,516,-483,289
5515,-2.927246094,-1.82421875,-4.946044922,520,-477,286
5521,-2.929199219,-1.823974609,-4.943603516,507,-491,283
5526,-2.928466797,-1.829833984,-4.938232422,520,-485,276
5531,-2.927001953,-1.821777344,-4.939941406,515,-501,292
5536,-2.926269531,-1.821289063,-4.945556641,504,-457,293
5541,-2.929199219,-1.824707031,-4.947265625,525,-479,275
5546,-2.927490234,-1.824462891,-4.941894531,527,-481,275
5551,-2.930175781,-1.824462891,-4.942626953,523,-486,275
5556,-2.931640625,-1.824951172,-4.947021484,488,-484,296
5561,-2.928955078,-1.825439453,-4.942138672,501,-493,309
5566,-2.92578125,-1.826171875,-4.940917969,509,-476,310
5571,-2.927246094,-1.826171875,-4.936523438,500,-485,277
5576,-2.934326172,-1.825683594,-4.934326172,504,-489,273
5581,-2.929931641,-1.822021484,-4.941162109,513,-481,292
5586,-2.929931641,-1.822265625,-4.948730469,521,-477,271
5591,-2.930664063,-1.821777344,-4.946777344,488,-483,288
5596,-2.929443359,-1.822998047,-4.939697266,528,-493,288
5601,-2.929931641,-1.825195313,-4.9453125,498,-494,275
5606,-2.925537109,-1.822998047,-4.946289063,506,-485,252
5611,-2.931152344,-1.825683594,-4.938720703,497,-494,287
5616,-2.9296875,-1.825683594,-4.944580078,516,-491,290
5621,-2.927246094,-1.830078125,-4.949707031,522,-491,280
5626,-2.932861328,-1.830078125,-4.940185547,511,-481,307
5631,-2.931884766,-1.828125,-4.936523438,512,-487,291
5636,-2.927246094,-1.825927734,-4.946289063,532,-483,279
5641,-2.932373047,-1.822021484,-4.937744141,516,-488,282
5646,-2.927001953,-1.822265625,-4.941162109,508,-484,272
5651,-2.929199219,-1.821533203,-4.946533203,503,-484,281
5657,-2.930908203,-1.82421875,-4.949951172,508,-478,290
5662,-2.930175781,-1.823974609,-4.938232422,500,-476,295
5667,-2.927978516,-1.821289063,-4.9453125,498,-501,279
5672,-2.927734375,-1.822753906,-4.940673828,508,-482,281
5677,-2.930908203,-1.828125,-4.943359375,492,-491,300
5682,-2.927490234,-1.822998047,-4.946289063,509,-470,287
5687,-2.927001953,-1.826904297,-4.939941406,504,-485,311
5692,-2.930175781,-1.824707031,-4.944091797,521,-510,289
5697,-2.928955078,-1.822265625,-4.946289063,504,-487,283
5702,-2.927978516,-1.825683594,-4.948730469,482,-492,288
5707,-2.927246094,-1.822509766,-4.938232422,508,-479,299
5712,-2.929199219,-1.828125,-4.940429688,505,-484,267
5717,-2.931640625,-1.823730469,-4.939208984,516,-467,267
5722,-2.934082031,-1.822753906,-4.940673828,509,-487,293
5727,-2.930175781,-1.825439453,-4.944091797,506,-470,300
5732,-2.928710938,-1.82421875,-4.944824219,534,-474,272
5737,-2.926757813,-1.822021484,-4.941650391,523,-481,275
5742,-2.930664063,-1.829345703,-4.940429688,524,-504,279
5747,-2.929199219,-1.820556641,-4.944580078,517,-499,278
5752,-2.927978516,-1.822509766,-4.938476563,492,-477,275
5757,-2.930175781,-1.826416016,-4.943359375,517,-483,262
5762,-2.930664063,-1.825683594,-4.940673828,505,-520,269
5767,-2.930175781,-1.821777344,-4.943847656,514,-473,286
5772,-2.931152344,-1.822265625,-4.946044922,493,-480,308
5777,-2.928955078,-1.825439453,-4.94140625,507,-517,288
5782,-2.929199219,-1.82421875,-4.944091797,525,-473,297
5787,-2.928466797,-1.823242188,-4.936767578,528,-490,310
5793,-2.929199219,-1.822509766,-4.939697266,514,-515,301
5798,-2.929931641,-1.826416016,-4.938720703,497,-487,294
5803,-2.930908203,-1.823242188,-4.943359375,497,-495,278
5808,-2.928222656,-1.825683594,-4.937744141,487,-500,287
5813,-2.932128906,-1.828613281,-4.938720703,485,-495,263
5818,-2.927490234,-1.822021484,-4.940917969,498,-488,248
5823,-2.923828125,-1.827148438,-4.941650391,517,-470,279
5828,-2.93359375,-1.829833984,-4.937255859,512,-486,296
5833,-2.928466797,-1.822509766,-4.940185547,524,-466,288
5838,-2.927978516,-1.823242188,-4.942382813,507,-483,294
5843,-2.932617188,-1.82421875,-4.945800781,524,-480,294
5848,-2.928710938,-1.823974609,-4.938964844,513,-476,293
5853,-2.932373047,-1.821533203,-4.946533203,507,-488,271
5858,-2.926269531,-1.826171875,-4.945068359,502,-477,275
5863,-2.932373047,-1.826904297,-4.947265625,514,-486,281
5868,-2.931152344,-1.821044922,-4.947265625,513,-482,278
5873,-2.9296875,-1.821044922,-4.941650391,508,-464,282
5878,-2.929199219,-1.825683594,-4.943359375,525,-494,274
5883,-2.927734375,-1.825195313,-4.944335938,530,-507,259
5888,-2.926269531,-1.821777344,-4.948730469,517,-488,264
5893,-2.926269531,-1.822509766,-4.939453125,488,-481,277
5898,-2.931152344,-1.823730469,-4.943603516,517,-479,282
5903,-2.929199219,-1.824951172,-4.946044922,499,-473,300
5908,-2.92578125,-1.825683594,-4.943603516,513,-504,277
5913,-2.927490234,-1.825927734,-4.945068359,534,-489,257
5918,-2.931884766,-1.822021484,-4.943847656,524,-496,288
5923,-2.932373047,-1.825195313,-4.943603516,526,-483,310
5929,-2.927978516,-1.826171875,-4.948730469,540,-477,287
5934,-2.926025391,-1.822509766,-4.944580078,507,-506,288
5939,-2.930664063,-1.823242188,-4.94140625,512,-497,296
5944,-2.926025391,-1.823242188,-4.939697266,522,-463,266
5949,-2.927734375,-1.823730469,-4.944091797,497,-472,284
5954,-2.928955078,-1.823486328,-4.9453125,499,-478,254
5959,-2.931884766,-1.827392578,-4.945556641,518,-482,264
5964,-2.926757813,-1.823730469,-4.944824219,510,-492,294
5969,-2.925292969,-1.82421875,-4.945800781,515,-474,276
5974,-2.930175781,-1.823974609,-4.943359375,513,-488,263
5979,-2.931640625,-1.822265625,-4.947998047,530,-494,279
5984,-2.930175781,-1.825683594,-4.946044922,531,-470,260
5989,-2.932128906,-1.825439453,-4.944335938,515,-494,305
5994,-2.930664063,-1.822753906,-4.941162109,488,-471,292
5999,-2.929199219,-1.826416016,-4.944335938,512,-465,253
6004,-2.929443359,-1.826660156,-4.945800781,509,-499,277
6009,-2.929931641,-1.822998047,-4.946044922,512,-485,281
6014,-2.930175781,-1.821044922,-4.942382813,528,-495,255
6019,-2.928222656,-1.820800781,-4.94921875,519,-505,281
6024,-2.929199219,-1.826904297,-4.944335938,511,-461,285
6029,-2.927978516,-1.826171875,-4.945556641,510,-496,266
6034,-2.928955078,-1.826171875,-4.948486328,511,-482,301
6039,-2.927001953,-1.824707031,-4.947021484,506,-469,258
6044,-2.932128906,-1.821777344,-4.939453125,499,-484,275
6049,-2.927246094,-1.822998047,-4.941894531,493,-497,290
6054,-2.931396484,-1.823486328,-4.943115234,515,-474,273
6059,-2.927978516,-1.827148438,-4.942138672,503,-474,274
6065,-2.930175781,-1.821289063,-4.946533203,515,-479,292
6070,-2.930664063,-1.82421875,-4.928955078,526,-486,283
6075,-2.926513672,-1.825195313,-4.938964844,494,-488,276
6080,-2.930175781,-1.822021484,-4.9453125,514,-509,297
6085,-2.926757813,-1.823242188,-4.943115234,507,-466,279
6090,-2.931640625,-1.821533203,-4.942138672,523,-503,289
6095,-2.926513672,-1.823730469,-4.938964844,496,-506,305
6100,-2.927734375,-1.826660156,-4.942382813,492,-470,295
6105,-2.9296875,-1.825195313,-4.939697266,500,-469,260
6110,-2.933349609,-1.829589844,-4.946289063,509,-487,283
6115,-2.928466797,-1.821289063,-4.944335938,516,-480,272
6120,-2.931396484,-1.827880859,-4.946044922,504,-484,262
6125,-2.929931641,-1.825683594,-4.947509766,512,-485,284
6130,-2.934570313,-1.821289063,-4.942138672,531,-504,272
6135,-2.927001953,-1.822265625,-4.947265625,513,-485,283
6140,-2.928222656,-1.822998047,-4.948486328,497,-475,267
6145,-2.928710938,-1.822509766,-4.943847656,515,-496,254
6150,-2.929931641,-1.822265625,-4.939453125,510,-477,297
6155,-2.927978516,-1.823730469,-4.939697266,523,-486,294
6160,-2.927001953,-1.824707031,-4.946044922,504,-489,280
6165,-2.931152344,-1.828369141,-4.942871094,514,-487,286
6170,-2.929931641,-1.823730469,-4.939208984,506,-482,264
6175,-2.927734375,-1.824951172,-4.937988281,515,-479,289
6180,-2.925537109,-1.822998047,-4.94921875,540,-475,300
6185,-2.933837891,-1.818359375,-4.944335938,504,-469,272
6190,-2.92578125,-1.826416016,-4.946777344,521,-494,283
6195,-2.930908203,-1.825439453,-4.941894531,535,-470,280
6201,-2.932373047,-1.821777344,-4.942138672,501,-480,283
6206,-2.927001953,-1.823730469,-4.937988281,499,-489,289
6211,-2.929931641,-1.824462891,-4.937988281,527,-491,293
6216,-2.9296875,-1.828369141,-4.943847656,497,-508,292
6221,-2.929443359,-1.828613281,-4.941650391,529,-489,263
6226,-2.927246094,-1.823730469,-4.938720703,524,-507,292
6231,-2.927978516,-1.825195313,-4.942626953,525,-490,314
6236,-2.927490234,-1.82421875,-4.940185547,503,-469,305
6241,-2.929443359,-1.822509766,-4.943603516,515,-503,300
6246,-2.927734375,-1.824951172,-4.943359375,510,-486,276
6251,-2.930419922,-1.82421875,-4.944335938,527,-482,254
6256,-2.928466797,-1.825683594,-4.941894531,528,-482,265
6261,-2.930419922,-1.826171875,-4.946289063,522,-502,287
6266,-2.925537109,-1.824707031,-4.946777344,513,-470,292
6271,-2.925537109,-1.824707031,-4.945556641,513,-494,294
6276,-2.927246094,-1.828613281,-4.9375,521,-490,256
6281,-2.925292969,-1.824951172,-4.941894531,530,-486,283
6286,-2.928955078,-1.823974609,-4.944580078,489,-481,257
6291,-2.928955078,-1.826416016,-4.938964844,522,-509,303
6296,-2.927978516,-1.827880859,-4.937744141,519,-496,276
6301,-2.927490234,-1.822509766,-4.940917969,515,-457,272
6306,-2.926757813,-1.824951172,-4.9453125,526,-502,294
6311,-2.931152344,-1.825195313,-4.939941406,498,-498,270
6316,-2.929931641,-1.817871094,-4.953613281,502,-481,290
6321,-2.929443359,-1.827392578,-4.943603516,516,-468,273
6326,-2.932861328,-1.823486328,-4.948242188,529,-469,287
6331,-2.932128906,-1.826416016,-4.943847656,509,-504,292
6337,-2.927734375,-1.825683594,-4.947265625,505,-472,301
6342,-2.928710938,-1.822021484,-4.931640625,514,-507,287
6347,-2.930419922,-1.826416016,-4.943847656,512,-480,293
6352,-2.926269531,-1.823974609,-4.946289063,491,-483,274
6357,-2.928466797,-1.827880859,-4.940673828,511,-485,282
6362,-2.929199219,-1.823486328,-4.940673828,512,-500,292
6367,-2.928955078,-1.818847656,-4.948486328,495,-487,275
6372,-2.928955078,-1.82421875,-4.944580078,509,-487,267
6377,-2.930175781,-1.822509766,-4.94140625,525,-495,277
6382,-2.928222656,-1.829589844,-4.942626953,519,-476,299
6387,-2.929199219,-1.823486328,-4.951660156,502,-485,303
6392,-2.926269531,-1.824707031,-4.935546875,519,-486,289
6397,-2.930175781,-1.825927734,-4.946533203,520,-511,273
6402,-2.933105469,-1.824707031,-4.947998047,517,-490,291
6407,-2.923095703,-1.825683594,-4.952636719,511,-486,278
6412,-2.930664063,-1.821044922,-4.940673828,529,-471,287
6417,-2.932617188,-1.824951172,-4.943847656,517,-481,273
6422,-2.930175781,-1.826171875,-4.937744141,508,-510,280
6427,-2.926269531,-1.827636719,-4.940673828,501,-498,256
6432,-2.928955078,-1.821533203,-4.947265625,524,-487,269
6437,-2.931640625,-1.826171875,-4.942626953,503,-490,279
6442,-2.930908203,-1.820556641,-4.939697266,515,-504,270
6447,-2.928466797,-1.821777344,-4.939941406,518,-486,272
6452,-2.929931641,-1.826904297,-4.947021484,533,-492,310
6457,-2.930664063,-1.824462891,-4.940185547,500,-487,280
6462,-2.930175781,-1.825927734,-4.946044922,512,-498,273
6467,-2.927001953,-1.826416016,-4.940917969,504,-501,297
6473,-2.929931641,-1.827392578,-4.948486328,502,-476,257
6478,-2.927490234,-1.82421875,-4.945068359,510,-475,271
6483,-2.932128906,-1.828369141,-4.941894531,532,-491,267
6488,-2.928955078,-1.823730469,-4.9453125,505,-490,277
6493,-2.928222656,-1.825683594,-4.941650391,517,-493,282
6498,-2.92578125,-1.820556641,-4.944824219,515,-462,284
6503,-2.925048828,-1.820556641,-4.944091797,515,-485,275
6508,-2.926513672,-1.826904297,-4.938476563,502,-492,284
6513,-2.9296875,-1.820800781,-4.948242188,517,-488,290
6518,-2.932861328,-1.826171875,-4.952636719,521,-499,271
6523,-2.931396484,-1.824462891,-4.942138672,502,-489,265
6528,-2.928955078,-1.826171875,-4.941650391,520,-484,266
6533,-2.929199219,-1.825683594,-4.941650391,507,-487,289
6538,-2.928466797,-1.824951172,-4.943847656,518,-492,306
6543,-2.929199219,-1.826660156,-4.946289063,506,-489,283
6548,-2.930419922,-1.824462891,-4.938964844,518,-491,296
6553,-2.92578125,-1.826416016,-4.947509766,516,-470,296
6558,-2.92578125,-1.827148438,-4.944335938,512,-507,264
6563,-2.928955078,-1.824951172,-4.948242188,504,-499,266
6568,-2.929443359,-1.822509766,-4.939208984,506,-472,279
6573,-2.930419922,-1.822265625,-4.936523438,515,-500,246
6578,-2.933837891,-1.82421875,-4.94140625,527,-489,275
6583,-2.926269531,-1.822753906,-4.941650391,527,-478,279
6588,-2.929931641,-1.824951172,-4.947509766,524,-499,277
6593,-2.930175781,-1.826171875,-4.943359375,524,-488,289
6598,-2.926757813,-1.823974609,-4.948974609,521,-465,272
6603,-2.931152344,-1.821777344,-4.947998047,498,-509,273
6609,-2.929443359,-1.825439453,-4.935302734,507,-488,281
6614,-2.926269531,-1.821533203,-4.940185547,492,-470,264
6619,-2.93359375,-1.827148438,-4.943359375,496,-492,302
6624,-2.930175781,-1.828857422,-4.940185547,521,-498,291
6629,-2.926757813,-1.823974609,-4.944335938,511,-458,284
6634,-2.930175781,-1.827148438,-4.939941406,516,-468,290
6639,-2.928466797,-1.821533203,-4.938476563,525,-475,286
6644,-2.927978516,-1.821777344,-4.947753906,532,-481,277
6649,-2.927246094,-1.825195313,-4.946289063,515,-483,285
6654,-2.930175781,-1.824951172,-4.9453125,511,-493,273
6659,-2.932617188,-1.823974609,-4.950439453,529,-502,282
6664,-2.930419922,-1.825683594,-4.947753906,513,-495,281
6669,-2.929199219,-1.823974609,-4.946044922,481,-497,289
6674,-2.932373047,-1.825683594,-4.940429688,511,-484,281
6679,-2.931396484,-1.82421875,-4.949462891,530,-483,276
6684,-2.932861328,-1.822998047,-4.949462891,537,-489,309
6689,-2.931884766,-1.823242188,-4.942382813,517,-489,292
6694,-2.928222656,-1.826416016,-4.939453125,543,-506,265
6699,-2.927490234,-1.821777344,-4.945068359,495,-474,308
6704,-2.926513672,-1.82421875,-4.948242188,500,-491,274
6709,-2.927001953,-1.822265625,-4.938720703,514,-487,270
6714,-2.92578125,-1.823730469,-4.947753906,493,-487,278
6719,-2.927001953,-1.822998047,-4.942626953,517,-491,285
6724,-2.932373047,-1.825195313,-4.941162109,506,-504,295
6729,-2.928466797,-1.827392578,-4.945800781,514,-502,292
6734,-2.930664063,-1.822265625,-4.949951172,507,-456,290
6739,-2.933105469,-1.826904297,-4.943847656,518,-507,278
6745,-2.931640625,-1.825439453,-4.951416016,504,-498,265
6750,-2.928710938,-1.822265625,-4.944824219,493,-464,286
6755,-2.927490234,-1.825195313,-4.944580078,512,-488,282
6760,-2.928710938,-1.822753906,-4.938232422,508,-497,287
6765,-2.928466797,-1.823486328,-4.949951172,488,-488,283
6770,-2.930664063,-1.826904297,-4.938232422,482,-476,256
6775,-2.930175781,-1.830566406,-4.942382813,544,-499,266
6780,-2.926269531,-1.822998047,-4.943603516,490,-481,292
6785,-2.929931641,-1.824462891,-4.946044922,516,-480,280
6790,-2.932128906,-1.822021484,-4.941650391,528,-501,282
6795,-2.931640625,-1.822998047,-4.949462891,536,-482,287
6800,-2.932373047,-1.820800781,-4.942871094,515,-476,293
6805,-2.928710938,-1.822998047,-4.940185547,511,-463,267
6810,-2.928222656,-1.823486328,-4.944091797,522,-488,289
6815,-2.929443359,-1.825439453,-4.940917969,505,-482,274
6820,-2.926025391,-1.824707031,-4.945068359,507,-462,298
6825,-2.928955078,-1.828857422,-4.940673828,519,-500,267
6830,-2.927490234,-1.827880859,-4.938964844,519,-487,296
6835,-2.927490234,-1.825927734,-4.945068359,517,-481,303
6840,-2.923828125,-1.824951172,-4.946044922,558,-482,313
6845,-2.929443359,-1.824707031,-4.9453125,506,-473,301
6850,-2.927490234,-1.819335938,-4.9453125,527,-507,295
6855,-2.929443359,-1.825683594,-4.945800781,504,-501,286
6860,-2.927001953,-1.828613281,-4.942871094,502,-474,273
6865,-2.929199219,-1.822998047,-4.945556641,506,-479,294
6870,-2.932617188,-1.825683594,-4.942138672,506,-485,266
6875,-2.930419922,-1.826416016,-4.946777344,537,-487,284
6881,-2.932861328,-1.822509766,-4.942626953,515,-485,265
6886,-2.928710938,-1.827880859,-4.943603516,526,-486,261
6891,-2.932617188,-1.824951172,-4.943847656,509,-494,297
6896,-2.928222656,-1.822998047,-4.941894531,519,-493,290
6901,-2.928466797,-1.824462891,-4.936523438,509,-497,283
6906,-2.928955078,-1.826660156,-4.941650391,495,-512,252
6911,-2.927734375,-1.822265625,-4.943603516,512,-478,279
6916,-2.928710938,-1.82421875,-4.944824219,509,-493,286
6921,-2.932373047,-1.823730469,-4.946289063,512,-518,273
6926,-2.923339844,-1.82421875,-4.943359375,513,-475,283
6931,-2.927978516,-1.822998047,-4.946289063,513,-488,276
6936,-2.931884766,-1.826660156,-4.939208984,512,-500,270
6941,-2.928955078,-1.82421875,-4.947265625,499,-471,294
6946,-2.927001953,-1.824462891,-4.946289063,520,-480,264
6951,-2.926513672,-1.824462891,-4.942382813,492,-473,277
6956,-2.925537109,-1.825927734,-4.940673828,513,-465,265
6961,-2.931396484,-1.826171875,-4.943359375,513,-499,272
6966,-2.925537109,-1.827392578,-4.943359375,497,-485,279
6971,-2.927001953,-1.828613281,-4.943115234,506,-487,285
6976,-2.929931641,-1.822265625,-4.940185547,544,-493,282
6981,-2.932617188,-1.824707031,-4.942871094,498,-499,295
6986,-2.929931641,-1.82421875,-4.947753906,512,-492,281
6991,-2.928955078,-1.825683594,-4.941894531,521,-493,287
6996,-2.930908203,-1.824707031,-4.942626953,503,-485,289
7001,-2.928222656,-1.828857422,-4.947509766,515,-487,294
7006,-2.926513672,-1.826904297,-4.944091797,535,-503,262
7011,-2.928955078,-1.820800781,-4.945800781,501,-458,258
7017,-2.927978516,-1.829833984,-4.945556641,491,-498,278
7022,-2.926025391,-1.823974609,-4.942382813,529,-468,278
7027,-2.928955078,-1.822998047,-4.947021484,505,-483,280
7032,-2.930419922,-1.825683594,-4.943603516,529,-493,275
7037,-2.926025391,-1.825439453,-4.946044922,507,-465,296
7042,-2.929199219,-1.825439453,-4.935302734,502,-507,283
7047,-2.926513672,-1.822265625,-4.9453125,484,-473,292
7052,-2.927490234,-1.825683594,-4.944091797,514,-458,264
7057,-2.927246094,-1.827148438,-4.940917969,513,-496,285
7062,-2.932861328,-1.829833984,-4.947509766,508,-487,281
7067,-2.927734375,-1.829589844,-4.939697266,508,-491,284
7072,-2.930908203,-1.829345703,-4.943115234,508,-473,284
7077,-2.930664063,-1.821289063,-4.944091797,515,-485,278
7082,-2.927001953,-1.822265625,-4.940917969,515,-492,286
7087,-2.925292969,-1.824951172,-4.943115234,522,-482,280
7092,-2.928710938,-1.820800781,-4.945068359,527,-495,261
7097,-2.927978516,-1.822753906,-4.946533203,527,-482,286
7102,-2.927490234,-1.821044922,-4.941162109,500,-491,281
7107,-2.929931641,-1.828857422,-4.941650391,502,-498,279
7112,-2.932128906,-1.819824219,-4.951660156,526,-504,275
7117,-2.935058594,-1.822998047,-4.944824219,502,-463,293
7122,-2.930419922,-1.825439453,-4.94140625,530,-486,286
7127,-2.927734375,-1.822265625,-4.946044922,515,-477,273
7132,-2.929443359,-1.824951172,-4.948242188,519,-495,305
7137,-2.929199219,-1.824707031,-4.943359375,492,-458,269
7142,-2.928955078,-1.824951172,-4.946289063,519,-494,286
7147,-2.927246094,-1.822753906,-4.94140625,510,-502,262
7153,-2.928955078,-1.82421875,-4.938232422,507,-482,302
7158,-2.927246094,-1.827392578,-4.943603516,489,-474,258
7163,-2.925537109,-1.82421875,-4.944335938,502,-477,285
7168,-2.927978516,-1.823730469,-4.93359375,519,-482,283
7173,-2.930908203,-1.825683594,-4.939208984,539,-484,285
7178,-2.928466797,-1.820800781,-4.940673828,495,-470,267
7183,-2.927001953,-1.821533203,-4.939697266,505,-491,293
7188,-2.927490234,-1.827880859,-4.9375,515,-483,272
7193,-2.935058594,-1.822998047,-4.942871094,493,-479,294
7198,-2.934814453,-1.826904297,-4.939941406,526,-470,276
7203,-2.932861328,-1.826416016,-4.948242188,508,-499,269
7208,-2.925292969,-1.82421875,-4.944580078,515,-465,284
7213,-2.931152344,-1.819824219,-4.944824219,509,-457,275
7218,-2.928955078,-1.827636719,-4.946289063,514,-480,276
7223,-2.932128906,-1.825683594,-4.937255859,530,-503,295
7228,-2.928466797,-1.821533203,-4.950927734,501,-492,286
7233,-2.934570313,-1.833007813,-4.943847656,526,-484,280
7238,-2.929443359,-1.822998047,-4.943359375,521,-473,266
7243,-2.926513672,-1.825927734,-4.939941406,504,-475,275
7248,-2.925537109,-1.823242188,-4.947509766,496,-469,239
7253,-2.929443359,-1.821777344,-4.945068359,510,-485,294
7258,-2.929931641,-1.823486328,-4.937988281,514,-498,277
7263,-2.928955078,-1.822509766,-4.945800781,508,-482,293
7268,-2.928222656,-1.822998047,-4.947021484,510,-495,292
7273,-2.925537109,-1.825439453,-4.941162109,516,-484,286
7278,-2.928955078,-1.823486328,-4.940429688,506,-491,291
7283,-2.931396484,-1.817382813,-4.942871094,496,-478,292
7289,-2.927734375,-1.826416016,-4.948974609,501,-485,283
7294,-2.928955078,-1.825195313,-4.944091797,506,-481,290
7299,-2.927001953,-1.823974609,-4.948974609,498,-476,257
7304,-2.929931641,-1.825683594,-4.948242188,522,-480,294
7309,-2.930419922,-1.826416016,-4.939697266,510,-480,298
7314,-2.928466797,-1.823974609,-4.946044922,490,-484,267
7319,-2.930175781,-1.825439453,-4.9453125,521,-484,279
7324,-2.929443359,-1.825683594,-4.944824219,513,-509,266
7329,-2.930419922,-1.8203125,-4.941894531,522,-481,276
7334,-2.928955078,-1.82421875,-4.943115234,495,-503,276
7339,-2.933105469,-1.823486328,-4.938476563,511,-482,272
7344,-2.934814453,-1.825927734,-4.938476563,513,-479,285
7349,-2.929443359,-1.830566406,-4.937011719,534,-489,281
7354,-2.929199219,-1.823730469,-4.937011719,528,-466,289
7359,-2.925537109,-1.825195313,-4.944580078,508,-494,251
7364,-2.928710938,-1.829589844,-4.941650391,503,-483,294
7369,-2.927490234,-1.825927734,-4.944824219,522,-476,289
7374,-2.927490234,-1.824951172,-4.942626953,507,-475,269
7379,-2.927978516,-1.822998047,-4.942382813,502,-481,261
7384,-2.928222656,-1.826171875,-4.944580078,500,-479,270
7389,-2.933837891,-1.82421875,-4.946533203,519,-498,286
7394,-2.934082031,-1.821533203,-4.944824219,528,-493,311
7399,-2.927001953,-1.825927734,-4.945800781,543,-511,284
7404,-2.926757813,-1.824951172,-4.939697266,511,-485,264
7409,-2.926269531,-1.826904297,-4.943603516,503,-487,264
7414,-2.927246094,-1.824951172,-4.948242188,502,-479,272
7419,-2.927734375,-1.82421875,-4.948974609,504,-489,268
7425,-2.928222656,-1.823974609,-4.937011719,506,-491,275
7430,-2.932617188,-1.826660156,-4.941162109,504,-473,283
7435,-2.928955078,-1.82421875,-4.946777344,527,-529,273
7440,-2.933349609,-1.826171875,-4.937744141,497,-491,283
7445,-2.925048828,-1.821777344,-4.947998047,506,-506,271
7450,-2.928710938,-1.823974609,-4.940917969,509,-485,287
7455,-2.931884766,-1.821777344,-4.947509766,544,-498,274
7460,-2.927734375,-1.817871094,-4.943603516,509,-476,293
7465,-2.927001953,-1.823486328,-4.943115234,491,-479,274
7470,-2.925537109,-1.822998047,-4.947021484,512,-494,281
7475,-2.931152344,-1.826904297,-4.947998047,510,-478,283
7480,-2.929443359,-1.828125,-4.945068359,490,-466,273
7485,-2.9296875,-1.830566406,-4.947998047,511,-474,290
7490,-2.929443359,-1.828857422,-4.942138672,519,-500,297
7495,-2.926757813,-1.825683594,-4.938232422,523,-473,288
7500,-2.927490234,-1.821533203,-4.939208984,524,-467,275
7505,-2.928710938,-1.823730469,-4.948974609,511,-487,306
7510,-2.926025391,-1.819335938,-4.944824219,518,-448,294
7515,-2.926757813,-1.822265625,-4.942871094,510,-480,302
7520,-2.928955078,-1.825683594,-4.945800781,510,-501,281
7525,-2.928466797,-1.828125,-4.947021484,502,-476,260
7530,-2.927734375,-1.822021484,-4.935791016,495,-478,285
7535,-2.930908203,-1.828613281,-4.938476563,487,-480,274
7540,-2.927246094,-1.823486328,-4.943115234,513,-495,282
7545,-2.9296875,-1.823486328,-4.949462891,536,-483,292
7550,-2.928955078,-1.826904297,-4.943115234,529,-488,280
7555,-2.927734375,-1.825439453,-4.946533203,507,-494,301
7561,-2.928955078,-1.821533203,-4.941650391,520,-470,298
7566,-2.9296875,-1.825195313,-4.940429688,485,-489,266
7571,-2.931640625,-1.823974609,-4.944824219,523,-493,283
7576,-2.927490234,-1.823242188,-4.950195313,512,-468,277
7581,-2.928710938,-1.823486328,-4.947998047,484,-461,266
7586,-2.931396484,-1.826660156,-4.938964844,500,-467,305
7591,-2.927978516,-1.826416016,-4.944091797,541,-475,284
7596,-2.926513672,-1.825683594,-4.944335938,511,-459,293
7601,-2.928466797,-1.823974609,-4.950439453,519,-477,299
7606,-2.927978516,-1.824951172,-4.94140625,505,-481,297
7611,-2.924560547,-1.825195313,-4.945800781,500,-493,286
7616,-2.930175781,-1.822998047,-4.938476563,473,-493,282
7621,-2.927978516,-1.827392578,-4.938720703,509,-468,280
7626,-2.928222656,-1.822021484,-4.944335938,512,-486,269
7631,-2.929931641,-1.826171875,-4.941162109,509,-470,274
7636,-2.931152344,-1.826660156,-4.943603516,520,-488,283
7641,-2.929443359,-1.825195313,-4.947265625,518,-487,294
7646,-2.928466797,-1.8203125,-4.946533203,519,-486,290
7651,-2.931640625,-1.824707031,-4.944335938,497,-507,279
7656,-2.930175781,-1.825439453,-4.942871094,517,-485,275
7661,-2.929199219,-1.822021484,-4.944335938,503,-469,255
7666,-2.927978516,-1.829589844,-4.938476563,498,-486,270
7671,-2.927246094,-1.829833984,-4.939697266,511,-502,271
7676,-2.931152344,-1.824707031,-4.946533203,516,-474,255
7681,-2.925537109,-1.827392578,-4.948242188,508,-482,274
7686,-2.930419922,-1.823242188,-4.943115234,511,-482,286
7691,-2.929931641,-1.824462891,-4.9453125,496,-505,286
7697,-2.926513672,-1.828369141,-4.945556641,508,-489,271
7702,-2.922607422,-1.825439453,-4.9453125,509,-482,281
7707,-2.928955078,-1.825439453,-4.946533203,505,-520,264
7712,-2.928710938,-1.82421875,-4.947021484,522,-472,289
7717,-2.932861328,-1.823242188,-4.943359375,499,-483,278
7722,-2.931640625,-1.824951172,-4.943359375,514,-491,268
7727,-2.931396484,-1.827148438,-4.948486328,506,-462,286
7732,-2.931152344,-1.831787109,-4.9375,507,-479,295
7737,-2.929443359,-1.825195313,-4.937255859,519,-484,291
7742,-2.927978516,-1.826171875,-4.945068359,522,-488,290
7747,-2.93359375,-1.820800781,-4.94140625,525,-491,294
7752,-2.930419922,-1.823242188,-4.939208984,498,-483,278
7757,-2.925537109,-1.822265625,-4.937011719,495,-469,289
7762,-2.929931641,-1.819091797,-4.939453125,510,-473,256
7767,-2.927490234,-1.826660156,-4.937255859,502,-485,268
7772,-2.931640625,-1.826171875,-4.939697266,512,-492,269
7777,-2.929443359,-1.825683594,-4.943115234,516,-489,285
7782,-2.932373047,-1.826416016,-4.942138672,514,-514,280
7787,-2.930419922,-1.823974609,-4.944091797,505,-507,283
7792,-2.932373047,-1.822265625,-4.944580078,506,-490,296
7797,-2.929199219,-1.826171875,-4.944091797,506,-476,283
7802,-2.927246094,-1.823730469,-4.941162109,495,-491,265
7807,-2.927978516,-1.822753906,-4.937988281,501,-497,277
7812,-2.932861328,-1.824707031,-4.947021484,503,-487,298
7817,-2.926757813,-1.829345703,-4.943115234,504,-481,285
7822,-2.931884766,-1.824707031,-4.938964844,519,-482,302
7827,-2.926513672,-1.822509766,-4.941162109,497,-469,288
7833,-2.926757813,-1.825683594,-4.944580078,503,-485,277
7838,-2.932128906,-1.830322266,-4.935058594,512,-514,264
7843,-2.931152344,-1.825683594,-4.948974609,520,-479,270
7848,-2.925048828,-1.823730469,-4.947021484,496,-479,285
7853,-2.928710938,-1.826416016,-4.935546875,513,-506,290
7858,-2.933349609,-1.822265625,-4.943603516,506,-480,304
7863,-2.927001953,-1.822998047,-4.936279297,482,-478,283
7868,-2.928955078,-1.824462891,-4.943115234,519,-488,284
7873,-2.928710938,-1.823730469,-4.942871094,522,-498,284
7878,-2.926757813,-1.820800781,-4.943359375,503,-489,282
7883,-2.928466797,-1.82421875,-4.945556641,508,-486,271
7888,-2.926757813,-1.822021484,-4.946533203,513,-495,260
7893,-2.931884766,-1.825683594,-4.934814453,505,-497,271
7898,-2.932861328,-1.826904297,-4.941894531,496,-497,291
7903,-2.930175781,-1.825439453,-4.948486328,502,-512,289
7908,-2.927001953,-1.825927734,-4.941162109,489,-510,279
7913,-2.9296875,-1.820556641,-4.94140625,504,-502,275
7918,-2.931884766,-1.828369141,-4.946289063,507,-481,273
7923,-2.931640625,-1.824951172,-4.943603516,511,-472,280
7928,-2.932861328,-1.824462891,-4.940185547,527,-493,263
7933,-2.930664063,-1.824707031,-4.943847656,494,-496,282
7938,-2.930175781,-1.822753906,-4.938720703,515,-459,266
7943,-2.930175781,-1.824707031,-4.947021484,491,-469,277
7948,-2.926757813,-1.822998047,-4.936767578,495,-498,301
7953,-2.930419922,-1.824462891,-4.933837891,494,-503,289
7958,-2.927978516,-1.822021484,-4.941650391,531,-474,261
7963,-2.928222656,-1.826416016,-4.939453125,534,-486,275
7969,-2.927490234,-1.828125,-4.938964844,507,-501,293
7974,-2.930419922,-1.824951172,-4.941162109,511,-489,287
7979,-2.929199219,-1.825683594,-4.9453125,495,-502,264
7984,-2.927978516,-1.826904297,-4.944824219,512,-500,259
7989,-2.930419922,-1.823242188,-4.946044922,519,-494,280
7994,-2.928955078,-1.821777344,-4.947509766,503,-477,277
7999,-2.934570313,-1.825195313,-4.937744141,499,-498,287
8004,-2.926757813,-1.828369141,-4.940429688,509,-472,277
8009,-2.932861328,-1.826904297,-4.9453125,521,-494,287
8014,-2.927734375,-1.827880859,-4.946533203,508,-496,273
8019,-2.92578125,-1.822265625,-4.944091797,521,-499,273
8024,-2.929931641,-1.824707031,-4.948730469,530,-484,294
8029,-2.931640625,-1.825683594,-4.940917969,507,-476,294
8034,-2.930908203,-1.825927734,-4.935302734,524,-491,284
8039,-2.928466797,-1.825683594,-4.941894531,505,-503,266
8044,-2.932617188,-1.823730469,-4.942871094,529,-484,273
8049,-2.930175781,-1.823486328,-4.946777344,500,-502,285
8054,-2.926757813,-1.824951172,-4.943359375,519,-473,284
8059,-2.929199219,-1.826660156,-4.942138672,514,-471,256
8064,-2.929931641,-1.820068359,-4.938964844,515,-465,275
8069,-2.929199219,-1.826904297,-4.948730469,514,-487,271
8074,-2.926269531,-1.827636719,-4.942871094,522,-479,277
8079,-2.928466797,-1.823242188,-4.942871094,512,-471,278
8084,-2.926513672,-1.826904297,-4.948974609,515,-502,311
8089,-2.930908203,-1.824951172,-4.943359375,496,-468,282
8094,-2.931396484,-1.822509766,-4.939941406,498,-494,276
8099,-2.929199219,-1.826416016,-4.94140625,513,-502,270
8105,-2.927734375,-1.822265625,-4.944091797,509,-487,275
8110,-2.922851563,-1.822021484,-4.943115234,500,-490,280
8115,-2.931396484,-1.827148438,-4.942382813,504,-471,279
8120,-2.929931641,-1.820556641,-4.940917969,527,-472,281
8125,-2.930175781,-1.820068359,-4.941894531,501,-471,280
8130,-2.926513672,-1.823486328,-4.947021484,528,-477,278
8135,-2.930419922,-1.824951172,-4.942382813,517,-465,285
8140,-2.931640625,-1.828857422,-4.940917969,509,-503,285
8145,-2.930419922,-1.829345703,-4.950927734,507,-485,279
8150,-2.934082031,-1.825195313,-4.934326172,520,-474,277
8155,-2.926269531,-1.824707031,-4.939208984,505,-500,274
8160,-2.929443359,-1.822509766,-4.944335938,508,-475,293
8165,-2.929199219,-1.826171875,-4.944335938,515,-480,266
8170,-2.928222656,-1.827880859,-4.946533203,502,-476,272
8175,-2.930908203,-1.825195313,-4.944824219,514,-494,265
8180,-2.927490234,-1.826171875,-4.947021484,499,-484,277
8185,-2.926025391,-1.825927734,-4.943115234,498,-498,260
8190,-2.928466797,-1.822265625,-4.942138672,502,-498,289
8195,-2.928710938,-1.822265625,-4.943115234,519,-478,273
8200,-2.926513672,-1.827148438,-4.940917969,499,-487,290
8205,-2.929931641,-1.826904297,-4.9453125,490,-503,286
8210,-2.929443359,-1.831054688,-4.943847656,513,-461,291
8215,-2.928710938,-1.824707031,-4.944580078,518,-461,286
8220,-2.926269531,-1.822998047,-4.938964844,503,-471,277
8225,-2.927734375,-1.821044922,-4.951171875,520,-463,288
8230,-2.926757813,-1.821289063,-4.947509766,496,-497,273
8235,-2.928955078,-1.827636719,-4.948730469,532,-485,270
8240,-2.934326172,-1.820800781,-4.950927734,507,-471,269
8246,-2.927978516,-1.821533203,-4.946533203,487,-495,286
8251,-2.928222656,-1.825683594,-4.939697266,500,-503,273
8256,-2.929931641,-1.829101563,-4.942382813,513,-482,316
8261,-2.925292969,-1.8203125,-4.946533203,499,-494,279
8266,-2.929443359,-1.821044922,-4.938476563,522,-496,266
8271,-2.927246094,-1.827392578,-4.950195313,501,-487,278
8276,-2.929931641,-1.819580078,-4.948974609,502,-471,292
8281,-2.928955078,-1.823242188,-4.945068359,509,-480,284
8286,-2.925537109,-1.825927734,-4.939941406,519,-479,275
8291,-2.925537109,-1.821289063,-4.946289063,480,-464,301
8296,-2.927734375,-1.823486328,-4.941894531,500,-498,279
8301,-2.926269531,-1.828369141,-4.942871094,534,-484,286
8306,-2.930175781,-1.822998047,-4.946289063,510,-502,267
8311,-2.929443359,-1.821533203,-4.944580078,521,-482,277
8316,-2.927490234,-1.823730469,-4.948730469,518,-491,268
8321,-2.932128906,-1.825927734,-4.942382813,512,-478,291
8326,-2.930664063,-1.825439453,-4.942382813,489,-482,275
8331,-2.926513672,-1.821777344,-4.948242188,514,-466,275
8336,-2.931640625,-1.823242188,-4.936523438,499,-492,287
8341,-2.928222656,-1.822021484,-4.947021484,497,-463,272
8346,-2.9296875,-1.822021484,-4.948486328,504,-490,265
8351,-2.927978516,-1.822998047,-4.937744141,526,-460,291
8356,-2.924072266,-1.826416016,-4.942382813,517,-505,302
8361,-2.930664063,-1.823730469,-4.947265625,513,-477,283
8366,-2.932128906,-1.822753906,-4.939941406,525,-497,293
8371,-2.927246094,-1.824462891,-4.945068359,526,-477,288
8376,-2.93359375,-1.824707031,-4.950439453,502,-469,274
8382,-2.934570313,-1.826416016,-4.947021484,491,-488,284
8387,-2.9296875,-1.826171875,-4.948730469,517,-479,281
8392,-2.930908203,-1.824462891,-4.947021484,515,-478,279
8397,-2.928955078,-1.823974609,-4.934570313,507,-456,283
8402,-2.925292969,-1.827392578,-4.94921875,522,-486,312
8407,-2.931640625,-1.823486328,-4.941650391,516,-496,271
8412,-2.929443359,-1.819091797,-4.946044922,509,-480,294
8417,-2.928710938,-1.824707031,-4.936279297,518,-490,269
8422,-2.929931641,-1.822509766,-4.942382813,485,-491,294
8427,-2.928710938,-1.825195313,-4.946289063,535,-461,277
8432,-2.932373047,-1.822509766,-4.941894531,508,-500,266
8437,-2.931884766,-1.828613281,-4.942626953,501,-487,291
8442,-2.932861328,-1.825927734,-4.943115234,507,-465,274
8447,-2.9296875,-1.826416016,-4.949951172,512,-478,295
8452,-2.927490234,-1.827880859,-4.939453125,525,-496,296
8457,-2.926269531,-1.819335938,-4.947753906,529,-483,296
8462,-2.928222656,-1.823730469,-4.948730469,504,-481,296
8467,-2.928710938,-1.822265625,-4.938476563,513,-489,288
8472,-2.933105469,-1.825195313,-4.948486328,495,-497,287
8477,-2.928955078,-1.823974609,-4.946777344,505,-487,271
8482,-2.929931641,-1.823486328,-4.947753906,520,-493,272
8487,-2.930908203,-1.823730469,-4.937255859,518,-495,282
8492,-2.929443359,-1.821289063,-4.945800781,520,-495,292
8497,-2.927734375,-1.822509766,-4.939941406,528,-496,280
8502,-2.926513672,-1.827148438,-4.94140625,533,-464,294
8507,-2.928955078,-1.827880859,-4.942626953,531,-479,294
8512,-2.927246094,-1.82421875,-4.942138672,489,-492,291
8518,-2.928710938,-1.828857422,-4.937255859,477,-493,258
8523,-2.932128906,-1.822265625,-4.941162109,497,-502,281
8528,-2.930175781,-1.819335938,-4.941894531,482,-468,271
8533,-2.923583984,-1.829101563,-4.939453125,489,-486,301
8538,-2.931152344,-1.823242188,-4.938964844,533,-489,263
8543,-2.933349609,-1.825439453,-4.939697266,493,-488,283
8548,-2.931396484,-1.826416016,-4.938232422,527,-506,276
8553,-2.927734375,-1.825683594,-4.938720703,515,-474,306
8558,-2.929443359,-1.82421875,-4.944824219,522,-490,305
8563,-2.926269531,-1.824951172,-4.946289063,521,-478,301
8568,-2.924804688,-1.826171875,-4.946289063,512,-503,295
8573,-2.933349609,-1.828369141,-4.942871094,524,-490,266
8578,-2.926269531,-1.823242188,-4.946777344,498,-480,262
8583,-2.931396484,-1.828857422,-4.94140625,521,-491,278
8588,-2.928710938,-1.822265625,-4.943847656,514,-471,273
8593,-2.924072266,-1.819580078,-4.946777344,490,-480,270
8598,-2.9296875,-1.824462891,-4.940429688,509,-483,288
8603,-2.931152344,-1.822998047,-4.941894531,529,-491,329
8608,-2.924072266,-1.822753906,-4.947021484,503,-484,284
8613,-2.927978516,-1.828369141,-4.939941406,517,-488,279
8618,-2.923828125,-1.826416016,-4.944091797,493,-488,293
8623,-2.927490234,-1.824462891,-4.942138672,514,-501,279
8628,-2.928955078,-1.827880859,-4.940917969,501,-487,282
8633,-2.929199219,-1.825683594,-4.9375,516,-490,277
8638,-2.929443359,-1.828369141,-4.947998047,522,-487,280
8643,-2.927978516,-1.824462891,-4.944335938,515,-485,261
8648,-2.927978516,-1.823730469,-4.949462891,530,-501,294
8654,-2.924804688,-1.825439453,-4.941894531,534,-470,284
8659,-2.928466797,-1.818603516,-4.945068359,513,-476,295
8664,-2.933105469,-1.818603516,-4.942382813,506,-487,291
8669,-2.929443359,-1.825439453,-4.937744141,506,-494,285
8674,-2.930175781,-1.826660156,-4.943603516,519,-482,279
8679,-2.927246094,-1.824707031,-4.946044922,503,-458,287
8684,-2.930908203,-1.82421875,-4.945068359,503,-507,305
8689,-2.930908203,-1.826660156,-4.94140625,509,-483,285
8694,-2.930664063,-1.826660156,-4.944580078,517,-478,275
8699,-2.929931641,-1.820800781,-4.944091797,530,-481,291
8704,-2.928466797,-1.823242188,-4.942626953,548,-471,292
8709,-2.929199219,-1.819580078,-4.948974609,514,-473,269
8714,-2.927246094,-1.822021484,-4.942626953,498,-481,280
8719,-2.925292969,-1.82421875,-4.947265625,502,-478,272
8724,-2.930175781,-1.825683594,-4.939208984,472,-485,274
8729,-2.9296875,-1.827392578,-4.944580078,494,-468,278
8734,-2.933105469,-1.826660156,-4.946044922,545,-478,281
8739,-2.927978516,-1.825927734,-4.944580078,505,-486,285
8744,-2.932373047,-1.826171875,-4.945800781,522,-471,290
8749,-2.929443359,-1.829833984,-4.941894531,529,-491,270
8754,-2.930664063,-1.820068359,-4.942138672,533,-480,275
8759,-2.928710938,-1.824707031,-4.944335938,503,-459,270
8764,-2.929443359,-1.820068359,-4.945556641,494,-489,278
8769,-2.929931641,-1.824462891,-4.9453125,517,-476,272
8774,-2.930664063,-1.819824219,-4.943359375,492,-487,278
8779,-2.930908203,-1.828857422,-4.945556641,504,-506,282
8784,-2.9296875,-1.825439453,-4.94140625,507,-490,303
8790,-2.930175781,-1.825683594,-4.946044922,517,-489,293
8795,-2.929931641,-1.825195313,-4.948730469,517,-504,271
8800,-2.927734375,-1.827636719,-4.940917969,506,-484,285
8805,-2.928710938,-1.827148438,-4.942382813,537,-484,288
8810,-2.928710938,-1.825195313,-4.937255859,536,-475,279
8815,-2.931396484,-1.827148438,-4.943359375,502,-473,245
8820,-2.926757813,-1.824462891,-4.941162109,484,-479,274
8825,-2.930908203,-1.825927734,-4.943603516,498,-483,280
8830,-2.928710938,-1.822509766,-4.941650391,498,-495,281
8835,-2.929443359,-1.820556641,-4.934570313,513,-488,295
8840,-2.927490234,-1.823486328,-4.937255859,519,-496,288
8845,-2.9296875,-1.821289063,-4.939697266,511,-495,319
8850,-2.931152344,-1.825683594,-4.942871094,522,-484,269
8855,-2.932617188,-1.826416016,-4.940429688,511,-494,274
8860,-2.93359375,-1.821289063,-4.952392578,506,-484,264
8865,-2.926757813,-1.825927734,-4.939941406,508,-471,271
8870,-2.9296875,-1.826171875,-4.943115234,493,-491,271
8875,-2.929931641,-1.823730469,-4.941650391,479,-463,274
8880,-2.928710938,-1.825439453,-4.939941406,518,-492,289
8885,-2.927001953,-1.823486328,-4.939941406,514,-493,283
8890,-2.930175781,-1.819335938,-4.943359375,525,-492,310
8895,-2.927246094,-1.823242188,-4.949462891,502,-500,304
8900,-2.93359375,-1.821533203,-4.939941406,508,-482,284
8905,-2.930419922,-1.819824219,-4.942626953,513,-488,282
8910,-2.927978516,-1.830322266,-4.944091797,495,-475,286
8915,-2.928710938,-1.824951172,-4.943359375,517,-469,289
8920,-2.931396484,-1.824707031,-4.947753906,521,-473,316
8926,-2.926513672,-1.824707031,-4.945068359,512,-483,285
8931,-2.92578125,-1.82421875,-4.937744141,517,-479,294
8936,-2.929199219,-1.822021484,-4.936279297,509,-485,264
8941,-2.92578125,-1.825195313,-4.947509766,527,-480,263
8946,-2.933837891,-1.824707031,-4.941894531,500,-472,264
8951,-2.927246094,-1.826171875,-4.937744141,523,-504,295
8956,-2.926269531,-1.824707031,-4.946533203,503,-478,284
8961,-2.932128906,-1.823974609,-4.938964844,504,-484,289
8966,-2.935302734,-1.821777344,-4.944580078,531,-503,297
8971,-2.928710938,-1.824707031,-4.941650391,525,-490,267
8976,-2.932373047,-1.822021484,-4.946044922,529,-488,301
8981,-2.926757813,-1.830078125,-4.942382813,501,-483,279
8986,-2.926757813,-1.827880859,-4.946533203,530,-471,294
8991,-2.927490234,-1.823486328,-4.943603516,503,-502,289
8996,-2.927490234,-1.827636719,-4.947509766,507,-487,275
9001,-2.927734375,-1.824951172,-4.945068359,524,-480,263
9006,-2.934814453,-1.821289063,-4.94140625,507,-492,289
9011,-2.930175781,-1.823486328,-4.942138672,493,-472,311
9016,-2.927001953,-1.827148438,-4.939697266,499,-485,260
9021,-2.931640625,-1.8203125,-4.938964844,517,-475,268
9026,-2.924072266,-1.821289063,-4.947021484,508,-501,312
9031,-2.927490234,-1.822265625,-4.9375,516,-483,293
9036,-2.927490234,-1.824951172,-4.950683594,512,-494,270
9041,-2.931396484,-1.825439453,-4.944335938,521,-502,284
9046,-2.927978516,-1.827636719,-4.941894531,508,-484,274
9051,-2.929199219,-1.825683594,-4.947998047,504,-482,308
9056,-2.926757813,-1.820556641,-4.942138672,493,-484,276
9062,-2.927001953,-1.825683594,-4.946533203,491,-505,262
9067,-2.927490234,-1.827148438,-4.942138672,521,-483,291
9072,-2.927246094,-1.821289063,-4.942871094,520,-474,252
9077,-2.927734375,-1.824462891,-4.943359375,512,-467,272
9082,-2.928222656,-1.829589844,-4.940429688,504,-494,298
9087,-2.928710938,-1.822509766,-4.939208984,525,-463,285
9092,-2.929443359,-1.824707031,-4.947509766,504,-474,296
9097,-2.930664063,-1.825195313,-4.946777344,518,-490,281
9102,-2.930175781,-1.825683594,-4.942871094,515,-484,288
9107,-2.932861328,-1.822998047,-4.938476563,509,-470,269
9112,-2.932128906,-1.822509766,-4.943115234,494,-492,279
9117,-2.928710938,-1.821044922,-4.933105469,508,-497,279
9122,-2.929443359,-1.825683594,-4.946777344,499,-483,281
9127,-2.931396484,-1.819335938,-4.943115234,524,-485,290
9132,-2.928466797,-1.826904297,-4.938232422,504,-507,281
9137,-2.927490234,-1.818847656,-4.942871094,501,-491,296
9142,-2.928710938,-1.825195313,-4.943359375,516,-499,290
9147,-2.926757813,-1.826904297,-4.936035156,507,-476,285
9152,-2.926025391,-1.826416016,-4.943115234,525,-492,257
9157,-2.931884766,-1.823730469,-4.942382813,524,-483,319
9162,-2.931640625,-1.826171875,-4.942382813,515,-505,263
9167,-2.927978516,-1.826416016,-4.947021484,525,-494,291
9172,-2.929931641,-1.826171875,-4.940917969,515,-471,270
9177,-2.931152344,-1.824951172,-4.949707031,509,-484,284
9182,-2.932373047,-1.823730469,-4.94140625,501,-487,268
9187,-2.931640625,-1.823242188,-4.937988281,512,-478,294
9192,-2.930419922,-1.824462891,-4.948974609,508,-490,288
9198,-2.926025391,-1.823486328,-4.943115234,507,-494,277
9203,-2.927978516,-1.823730469,-4.944580078,518,-509,294
9208,-2.929931641,-1.822753906,-4.950683594,490,-482,282
9213,-2.930664063,-1.826416016,-4.947753906,512,-479,279
9218,-2.930908203,-1.821777344,-4.943847656,514,-481,283
9223,-2.930419922,-1.820068359,-4.94921875,522,-502,290
9228,-2.927490234,-1.821289063,-4.945556641,503,-485,291
9233,-2.928222656,-1.822509766,-4.940429688,514,-486,259
9238,-2.926513672,-1.819580078,-4.938476563,480,-463,257
9243,-2.927490234,-1.826416016,-4.943115234,497,-485,276
9248,-2.927001953,-1.823730469,-4.947753906,494,-489,271
9253,-2.927001953,-1.826416016,-4.938232422,504,-485,281
9258,-2.924072266,-1.823730469,-4.943603516,519,-494,291
9263,-2.930175781,-1.825439453,-4.940673828,518,-480,290
9268,-2.931884766,-1.825195313,-4.945800781,516,-510,290
9273,-2.927246094,-1.825439453,-4.942382813,511,-463,294
9278,-2.927246094,-1.823730469,-4.947265625,514,-490,296
9283,-2.927001953,-1.827880859,-4.942871094,497,-487,272
9288,-2.932128906,-1.825439453,-4.946044922,521,-488,294
9293,-2.931396484,-1.823242188,-4.941650391,518,-512,276
9298,-2.927001953,-1.820068359,-4.946044922,500,-467,286
9303,-2.92578125,-1.822753906,-4.945556641,507,-482,283
9308,-2.932373047,-1.822021484,-4.943359375,521,-469,276
9313,-2.929443359,-1.823974609,-4.942871094,505,-486,284
9318,-2.927490234,-1.824951172,-4.938232422,528,-481,303
9323,-2.929443359,-1.821777344,-4.946044922,499,-498,304
9328,-2.928466797,-1.825195313,-4.941894531,489,-487,278
9334,-2.929443359,-1.822753906,-4.940917969,516,-483,273
9339,-2.926025391,-1.825927734,-4.939453125,500,-481,284
9344,-2.929443359,-1.827392578,-4.944091797,498,-474,285
9349,-2.932617188,-1.823974609,-4.944091797,496,-504,267
9354,-2.929443359,-1.827636719,-4.939453125,517,-478,262
9359,-2.930419922,-1.823730469,-4.942871094,508,-494,293
9364,-2.928710938,-1.822509766,-4.935302734,522,-503,255
9369,-2.928222656,-1.822753906,-4.940917969,506,-487,298
9374,-2.928710938,-1.821044922,-4.939208984,515,-505,294
9379,-2.928710938,-1.824951172,-4.945556641,502,-495,283
9384,-2.928710938,-1.821777344,-4.940673828,510,-486,283
9389,-2.925537109,-1.822509766,-4.943603516,488,-453,263
9394,-2.926513672,-1.828857422,-4.941894531,512,-487,267
9399,-2.928710938,-1.828369141,-4.938232422,503,-485,271
9404,-2.926757813,-1.82421875,-4.949707031,533,-479,276
9409,-2.927490234,-1.821533203,-4.945068359,536,-497,293
9414,-2.930419922,-1.823974609,-4.939941406,508,-500,268
9419,-2.9296875,-1.818359375,-4.941650391,529,-494,277
9424,-2.926757813,-1.821044922,-4.944091797,497,-475,277
9429,-2.930175781,-1.824707031,-4.944091797,508,-483,269
9434,-2.928466797,-1.824951172,-4.937988281,509,-486,275
9439,-2.929199219,-1.823974609,-4.936523438,524,-482,292
9444,-2.926269531,-1.825195313,-4.947753906,523,-469,275
9449,-2.928222656,-1.828125,-4.944091797,503,-489,288
9454,-2.929443359,-1.824462891,-4.944091797,499,-488,265
9459,-2.931640625,-1.823486328,-4.943115234,503,-474,286
9464,-2.929931641,-1.822265625,-4.940673828,515,-487,305
9470,-2.92578125,-1.822509766,-4.946777344,517,-493,282
9475,-2.931640625,-1.825683594,-4.941894531,501,-497,279
9480,-2.928222656,-1.828613281,-4.945800781,514,-489,293
9485,-2.927978516,-1.825439453,-4.946777344,513,-492,272
9490,-2.927978516,-1.826171875,-4.946289063,488,-478,267
9495,-2.930664063,-1.826416016,-4.942382813,495,-496,277
9500,-2.930664063,-1.829589844,-4.942382813,523,-481,295
9505,-2.930664063,-1.823242188,-4.946533203,518,-475,292
9510,-2.924560547,-1.824462891,-4.946777344,524,-479,293
9515,-2.92578125,-1.828125,-4.943359375,520,-487,299
9520,-2.928466797,-1.824951172,-4.952392578,504,-481,279
9525,-2.9296875,-1.82421875,-4.942871094,499,-477,287
9530,-2.931152344,-1.827392578,-4.942382813,477,-451,262
9535,-2.929443359,-1.824951172,-4.943603516,497,-492,268
9540,-2.931396484,-1.821533203,-4.94140625,506,-473,302
9545,-2.932617188,-1.829833984,-4.941162109,522,-494,303
9550,-2.930175781,-1.822998047,-4.943115234,531,-508,256
9555,-2.927001953,-1.823486328,-4.942138672,497,-488,316
9560,-2.927978516,-1.824462891,-4.939697266,525,-482,272
9565,-2.932128906,-1.825927734,-4.946533203,497,-479,309
9570,-2.928466797,-1.823974609,-4.937255859,522,-474,284
9575,-2.929931641,-1.827636719,-4.942626953,497,-473,267
9580,-2.931396484,-1.823974609,-4.942382813,496,-502,306
9585,-2.930419922,-1.826171875,-4.945556641,484,-509,277
9590,-2.930908203,-1.827880859,-4.94921875,510,-483,293
9595,-2.931884766,-1.826660156,-4.938964844,514,-504,270
9600,-2.928955078,-1.824707031,-4.938232422,512,-484,303
9606,-2.923583984,-1.823974609,-4.946289063,515,-467,288
9611,-2.930664063,-1.822753906,-4.9453125,499,-492,287
9616,-2.928466797,-1.824462891,-4.944091797,499,-505,254
9621,-2.928222656,-1.822753906,-4.946777344,502,-491,284
9626,-2.931884766,-1.821777344,-4.942871094,487,-485,244
9631,-2.927978516,-1.824707031,-4.9375,492,-477,285
9636,-2.927490234,-1.822021484,-4.9453125,522,-502,296
9641,-2.927001953,-1.823242188,-4.946289063,512,-469,283
9646,-2.925292969,-1.825439453,-4.941650391,500,-463,292
9651,-2.930908203,-1.826416016,-4.943603516,525,-494,280
9656,-2.929199219,-1.826904297,-4.944580078,528,-489,297
9661,-2.929931641,-1.822265625,-4.944335938,491,-477,268
9666,-2.929443359,-1.822753906,-4.9375,485,-485,277
9671,-2.928710938,-1.818847656,-4.933349609,487,-504,295
9676,-2.926513672,-1.820800781,-4.939941406,521,-479,292
9681,-2.928222656,-1.823730469,-4.940429688,536,-481,275
9686,-2.930419922,-1.826660156,-4.943359375,515,-499,258
9691,-2.9296875,-1.826904297,-4.939697266,519,-468,285
9696,-2.931396484,-1.827148438,-4.943603516,514,-474,275
9701,-2.928955078,-1.826660156,-4.945556641,522,-482,298
9706,-2.926269531,-1.820556641,-4.945556641,508,-474,285
9711,-2.926513672,-1.823974609,-4.944824219,520,-495,282
9716,-2.931640625,-1.823974609,-4.947509766,506,-478,291
9721,-2.929443359,-1.825927734,-4.938720703,509,-505,279
9726,-2.930664063,-1.822509766,-4.942138672,499,-489,291
9731,-2.930908203,-1.825927734,-4.939697266,524,-498,277
9736,-2.931640625,-1.823730469,-4.944335938,495,-483,279
9742,-2.926269531,-1.820068359,-4.944580078,508,-480,298
9747,-2.930908203,-1.825195313,-4.948486328,522,-488,308
9752,-2.926513672,-1.823974609,-4.939941406,513,-485,303
9757,-2.929931641,-1.824462891,-4.947021484,508,-475,281
9762,-2.9296875,-1.825683594,-4.948486328,499,-493,261
9767,-2.927734375,-1.824951172,-4.946533203,492,-480,301
9772,-2.928710938,-1.827392578,-4.944824219,521,-488,304
9777,-2.92578125,-1.822021484,-4.941650391,498,-493,250
9782,-2.9296875,-1.825683594,-4.9375,520,-511,256
9787,-2.928955078,-1.823486328,-4.945800781,517,-482,280
9792,-2.932617188,-1.821777344,-4.946289063,507,-487,291
9797,-2.931152344,-1.825195313,-4.938720703,522,-485,300
9802,-2.930419922,-1.818359375,-4.941894531,527,-495,280
9807,-2.929931641,-1.820800781,-4.937744141,529,-492,259
9812,-2.928222656,-1.822753906,-4.937011719,502,-510,292
9817,-2.928710938,-1.824951172,-4.943603516,491,-471,279
9822,-2.927001953,-1.824707031,-4.931640625,510,-507,265
9827,-2.926757813,-1.831298828,-4.935546875,497,-495,301
9832,-2.930908203,-1.827636719,-4.942626953,510,-499,287
9837,-2.932373047,-1.822021484,-4.947753906,525,-484,290
9842,-2.927978516,-1.822021484,-4.944824219,504,-490,273
9847,-2.931152344,-1.826660156,-4.938476563,532,-499,299
9852,-2.930908203,-1.824707031,-4.941162109,530,-477,282
9857,-2.927246094,-1.825195313,-4.944824219,487,-472,296
9862,-2.930908203,-1.825195313,-4.943115234,495,-505,263
9867,-2.926757813,-1.822509766,-4.937744141,515,-493,267
9872,-2.926757813,-1.824707031,-4.947021484,497,-466,261
9878,-2.932617188,-1.822998047,-4.939697266,511,-489,302
9883,-2.933105469,-1.823974609,-4.942626953,509,-480,257
9888,-2.930419922,-1.824707031,-4.943847656,510,-495,282
9893,-2.929443359,-1.827880859,-4.9375,516,-476,299
9898,-2.930664063,-1.827880859,-4.949462891,511,-483,295
9903,-2.929931641,-1.821289063,-4.946777344,520,-476,288
9908,-2.929443359,-1.825195313,-4.946044922,499,-494,280
9913,-2.931152344,-1.819580078,-4.943115234,503,-494,277
9918,-2.925292969,-1.824951172,-4.940429688,509,-498,302
9923,-2.927978516,-1.822021484,-4.937744141,512,-465,279
9928,-2.927978516,-1.824462891,-4.937255859,505,-488,279
9933,-2.931152344,-1.828857422,-4.939453125,510,-501,274
9938,-2.927734375,-1.82421875,-4.939453125,509,-494,299
9943,-2.928466797,-1.823242188,-4.940673828,519,-503,288
9948,-2.927734375,-1.826904297,-4.943115234,522,-472,261
9953,-2.927490234,-1.829345703,-4.947509766,534,-479,294
9958,-2.931640625,-1.820068359,-4.945800781,495,-470,275
9963,-2.931884766,-1.825195313,-4.947509766,510,-491,271
9968,-2.931152344,-1.822998047,-4.943359375,484,-506,273
9973,-2.932373047,-1.821777344,-4.94140625,532,-498,281
9978,-2.931396484,-1.822753906,-4.938964844,520,-478,278
9983,-2.933349609,-1.821533203,-4.940429688,534,-472,268
9988,-2.9296875,-1.824951172,-4.945800781,508,-489,282
9993,-2.927978516,-1.825683594,-4.938476563,530,-471,290
9998,-2.932861328,-1.829345703,-4.938476563,544,-476,283
10003,-2.930419922,-1.822753906,-4.943847656,510,-497,312
10008,-2.928222656,-1.827392578,-4.940185547,509,-488,281
10014,-2.925292969,-1.826171875,-4.935302734,497,-474,279
10019,-2.927246094,-1.822265625,-4.939697266,517,-495,273
10024,-2.930664063,-1.828125,-4.939453125,480,-491,273
10029,-2.925048828,-1.82421875,-4.939208984,502,-495,286
10034,-2.9296875,-1.828125,-4.943115234,514,-473,297
10039,-2.926757813,-1.8203125,-4.946289063,496,-464,275
10044,-2.933105469,-1.8203125,-4.943359375,509,-491,291
10049,-2.930419922,-1.825683594,-4.947509766,506,-460,267
10054,-2.931884766,-1.825927734,-4.943359375,517,-495,282
10059,-2.930908203,-1.822265625,-4.943115234,515,-485,287
10064,-2.927246094,-1.828369141,-4.949707031,503,-455,277
10069,-2.927490234,-1.820556641,-4.946777344,513,-494,271
10074,-2.927490234,-1.822265625,-4.943603516,509,-473,275
10079,-2.927978516,-1.827148438,-4.944580078,505,-499,297
10084,-2.927734375,-1.825683594,-4.942138672,539,-482,298
10089,-2.927734375,-1.823974609,-4.936523438,493,-498,283
10094,-2.927734375,-1.828125,-4.944824219,501,-485,283
10099,-2.929443359,-1.824462891,-4.94140625,510,-491,285
10104,-2.930908203,-1.822753906,-4.944824219,500,-484,275
10109,-2.931396484,-1.824707031,-4.946044922,488,-483,272
10114,-2.926513672,-1.824462891,-4.941894531,507,-509,277
10119,-2.930175781,-1.823486328,-4.948242188,509,-485,277
10124,-2.929443359,-1.822753906,-4.943603516,506,-468,264
10129,-2.930419922,-1.827636719,-4.943115234,512,-500,293
10134,-2.927001953,-1.825195313,-4.941162109,507,-476,289
10139,-2.928710938,-1.825927734,-4.938964844,492,-475,269
10144,-2.930175781,-1.824462891,-4.94921875,513,-476,279
10150,-2.928710938,-1.829101563,-4.941162109,514,-486,294
10155,-2.931884766,-1.821533203,-4.942626953,495,-483,291
10160,-2.928710938,-1.827880859,-4.942382813,535,-477,276
10165,-2.928222656,-1.825927734,-4.943603516,509,-501,282
10170,-2.929443359,-1.823974609,-4.944824219,520,-500,264
10175,-2.927001953,-1.822998047,-4.944824219,509,-490,299
10180,-2.928466797,-1.823242188,-4.9453125,490,-483,277
10185,-2.930175781,-1.821777344,-4.941162109,533,-497,279
10190,-2.930664063,-1.827148438,-4.947998047,522,-491,285
10195,-2.927734375,-1.824951172,-4.945068359,489,-498,268
10200,-2.931884766,-1.826660156,-4.946289063,507,-493,290
10205,-2.931396484,-1.823730469,-4.948974609,521,-482,281
10210,-2.929931641,-1.822998047,-4.949951172,493,-480,289
10215,-2.931396484,-1.820556641,-4.948730469,514,-473,294
10220,-2.929931641,-1.821289063,-4.94140625,514,-496,304
10225,-2.930175781,-1.825683594,-4.943359375,511,-482,290
10230,-2.92578125,-1.828369141,-4.943115234,512,-499,276
10235,-2.932861328,-1.827880859,-4.948486328,496,-499,309
10240,-2.928710938,-1.826171875,-4.948242188,493,-485,262
10245,-2.928955078,-1.824951172,-4.943115234,511,-486,294
10250,-2.928466797,-1.828369141,-4.945556641,508,-469,256
10255,-2.930664063,-1.821533203,-4.947509766,512,-496,287
10260,-2.932128906,-1.826171875,-4.939453125,508,-497,279
10265,-2.926025391,-1.825439453,-4.9453125,503,-491,279
10270,-2.926513672,-1.823486328,-4.948486328,513,-468,301
10275,-2.927978516,-1.823242188,-4.952148438,531,-483,274
10280,-2.927978516,-1.821533203,-4.944091797,522,-491,287
10286,-2.926513672,-1.820800781,-4.953125,502,-506,293
10291,-2.927978516,-1.824951172,-4.944824219,511,-458,282
10296,-2.929443359,-1.832763672,-4.94140625,509,-484,289
10301,-2.930908203,-1.824707031,-4.946533203,502,-502,281
10306,-2.933837891,-1.822753906,-4.944335938,506,-487,253
10311,-2.923828125,-1.82421875,-4.943115234,520,-485,271
10316,-2.927978516,-1.824462891,-4.942871094,520,-500,292
10321,-2.928710938,-1.823242188,-4.942626953,507,-484,299
10326,-2.930908203,-1.823730469,-4.947021484,521,-482,277
10331,-2.929443359,-1.827148438,-4.947509766,502,-492,284
10336,-2.927490234,-1.822509766,-4.946044922,488,-496,242
10341,-2.928710938,-1.824462891,-4.941650391,494,-502,275
10346,-2.928710938,-1.823974609,-4.940673828,495,-507,286
10351,-2.9296875,-1.830078125,-4.942138672,512,-507,275
10356,-2.927978516,-1.824462891,-4.941650391,509,-491,297
10361,-2.927734375,-1.826904297,-4.943115234,509,-504,296
10366,-2.929443359,-1.824951172,-4.9453125,514,-498,313
10371,-2.931396484,-1.825439453,-4.945556641,497,-502,271
10376,-2.928466797,-1.821533203,-4.948242188,502,-480,271
10381,-2.930175781,-1.823974609,-4.944580078,479,-485,291
10386,-2.928466797,-1.822998047,-4.945800781,513,-487,266
10391,-2.930175781,-1.822509766,-4.9453125,474,-504,273
10396,-2.928710938,-1.827392578,-4.936767578,509,-511,276
10401,-2.927001953,-1.823242188,-4.932861328,516,-470,293
10406,-2.930419922,-1.8203125,-4.941650391,512,-491,269
10411,-2.928710938,-1.824707031,-4.942871094,521,-478,287
10416,-2.928710938,-1.822509766,-4.94140625,517,-486,264
10422,-2.930175781,-1.821777344,-4.946777344,506,-493,298
10427,-2.926025391,-1.823486328,-4.946777344,511,-475,277
10432,-2.930664063,-1.824707031,-4.946533203,506,-467,280
10437,-2.931884766,-1.820068359,-4.941650391,497,-470,259
10442,-2.930908203,-1.824951172,-4.939208984,494,-496,265
10447,-2.93359375,-1.822998047,-4.946289063,499,-497,290
10452,-2.928466797,-1.822265625,-4.939697266,505,-486,292
10457,-2.933349609,-1.823486328,-4.944580078,509,-487,299
10462,-2.934814453,-1.825683594,-4.941894531,518,-498,291
10467,-2.930908203,-1.822265625,-4.943847656,528,-479,296
10472,-2.926269531,-1.818359375,-4.947265625,501,-480,282
10477,-2.929931641,-1.821289063,-4.952148438,507,-485,280
10482,-2.930908203,-1.823974609,-4.938476563,505,-501,272
10487,-2.933349609,-1.826660156,-4.939453125,503,-468,265
10492,-2.930175781,-1.824462891,-4.943603516,499,-474,275
10497,-2.933105469,-1.827392578,-4.942382813,509,-475,278
10502,-2.929931641,-1.826660156,-4.941894531,521,-502,287
10507,-2.9296875,-1.823486328,-4.945068359,518,-489,287
10512,-2.933349609,-1.824951172,-4.942138672,511,-474,285
10517,-2.927490234,-1.823730469,-4.940917969,512,-479,283
10522,-2.926269531,-1.822509766,-4.945068359,521,-476,296
10527,-2.926513672,-1.823730469,-4.940185547,504,-508,264
10532,-2.927978516,-1.825927734,-4.943603516,516,-486,277
10537,-2.933349609,-1.822509766,-4.94921875,507,-487,264
10542,-2.931884766,-1.822998047,-4.941650391,508,-473,275
10547,-2.929443359,-1.828125,-4.945556641,519,-496,293
10552,-2.931884766,-1.828369141,-4.94921875,503,-470,273
10558,-2.935302734,-1.825927734,-4.947509766,533,-479,298
10563,-2.927978516,-1.826660156,-4.94140625,510,-479,287
10568,-2.928955078,-1.821533203,-4.944580078,535,-479,287
10573,-2.928710938,-1.822753906,-4.946533203,499,-487,278
10578,-2.927490234,-1.821289063,-4.936035156,491,-479,256
10583,-2.927978516,-1.824462891,-4.943603516,510,-479,274
10588,-2.925537109,-1.826660156,-4.942382813,497,-506,280
10593,-2.928466797,-1.825683594,-4.9375,495,-490,280
10598,-2.933105469,-1.827880859,-4.937988281,521,-499,286
10603,-2.932861328,-1.825683594,-4.9453125,529,-490,268
10608,-2.929199219,-1.824462891,-4.947265625,510,-487,287
10613,-2.931152344,-1.826416016,-4.945800781,525,-485,265
10618,-2.927978516,-1.823486328,-4.938964844,511,-498,292
10623,-2.9296875,-1.8203125,-4.946289063,484,-506,289
10628,-2.927734375,-1.826660156,-4.945556641,486,-487,290
10633,-2.931640625,-1.823730469,-4.944580078,496,-474,294
10638,-2.931152344,-1.823242188,-4.937011719,501,-497,277
10643,-2.931640625,-1.826416016,-4.948974609,492,-476,283
10648,-2.926513672,-1.820800781,-4.939208984,508,-487,318
10653,-2.928710938,-1.825683594,-4.942382813,498,-486,293
10658,-2.933837891,-1.824462891,-4.940917969,521,-505,267
10663,-2.930175781,-1.819824219,-4.942871094,516,-488,278
10668,-2.929443359,-1.824462891,-4.939697266,530,-507,270
