Time,Acc_low_X,Acc_low_Y,Acc_low_Z,Gyro_low_X,Gyro_low_Y,Gyro_low_Z,Acc_X,Acc_Y,Acc_Z,Gyro_X,Gyro_Y,Gyro_Z,Euler_X,Euler_Y,Euler_Z
0,-2.914794921875,-1.822998046875,-4.937744140625,7.267175674438477,-7.343511581420898,5.068702220916748,-17.63726234436035,28.976499557495117,0.0,30.289588928222656,-30.607757568359375,21.126352310180664,-16.134096145629883,27.107717514038086,0.0
5,-2.917724609375,-1.82275390625,-4.939697265625,7.312977313995361,-7.312977313995361,4.85496187210083,-17.62590217590332,28.992835998535156,0.0,30.326154708862305,-30.644323348999023,21.15062713623047,-16.849557876586914,28.016708374023438,0.0
10,-2.91455078125,-1.821044921875,-4.9326171875,7.251908302307129,-7.251908302307129,4.931297779083252,-17.63262939453125,28.999794006347656,0.0,30.36241340637207,-30.68058204650879,21.175283432006836,-17.083513259887695,28.31662940979004,0.0
15,-2.918212890625,-1.822509765625,-4.939208984375,7.816793918609619,-7.664122104644775,4.809160232543945,-17.624181747436523,28.99940299987793,0.0,30.40149688720703,-30.718902587890625,21.199329376220703,-17.1882266998291,28.457162857055664,0.0
20,-2.917724609375,-1.824951171875,-4.945556640625,7.526717662811279,-7.251908302307129,5.114503860473633,-17.63128662109375,28.963991165161133,0.0,30.439130783081055,-30.75516128540039,21.22490119934082,-17.246139526367188,28.528852462768555,0.0
25,-2.911865234375,-1.824951171875,-4.946533203125,7.297709941864014,-7.648854732513428,4.916030406951904,-17.637434005737305,28.91100311279297,0.0,30.47562026977539,-30.793405532836914,21.249481201171875,-17.280593872070312,28.560327529907227,0.0
30,-2.9169921875,-1.823974609375,-4.9365234375,7.603053569793701,-7.450381755828857,5.007633686065674,-17.645933151245117,28.998525619506836,0.0,30.513635635375977,-30.830657958984375,21.274518966674805,-17.299968719482422,28.590723037719727,0.0
36,-2.91357421875,-1.818603515625,-4.935791015625,7.648854732513428,-7.541984558105469,4.839694499969482,-17.60400390625,28.981801986694336,0.0,30.5518798828125,-30.86836814880371,21.298717498779297,-17.304370880126953,28.60643768310547,0.0
41,-2.915283203125,-1.825927734375,-4.945068359375,7.557251930236816,-7.129770755767822,5.053435325622559,-17.644922256469727,28.94422721862793,0.0,30.59722328186035,-30.91114616394043,21.329038619995117,-17.301799774169922,28.60584259033203,0.0
46,-2.9111328125,-1.81982421875,-4.939208984375,7.282442569732666,-7.282442569732666,4.58015251159668,-17.610179901123047,28.94470977783203,0.0,30.633634567260742,-30.94755744934082,21.351940155029297,-17.2998046875,28.606889724731445,0.0
51,-2.913330078125,-1.8203125,-4.941650390625,7.5877861976623535,-7.083969593048096,4.748091697692871,-17.60533905029297,28.951679229736328,0.0,30.671573638916016,-30.98297691345215,21.375680923461914,-17.29305076599121,28.60599136352539,0.0
56,-2.91455078125,-1.824462890625,-4.94775390625,7.389312744140625,-7.3740458488464355,5.022900581359863,-17.62605094909668,28.928871154785156,0.0,30.708520889282227,-31.019847869873047,21.400794982910156,-17.286911010742188,28.599079132080078,0.0
61,-2.91162109375,-1.824462890625,-4.9384765625,7.770992279052734,-7.129770755767822,4.595419883728027,-17.653390884399414,28.94454574584961,0.0,30.74737548828125,-31.055496215820312,21.42377281188965,-17.27923011779785,28.592742919921875,0.0
66,-2.916259765625,-1.82470703125,-4.94287109375,7.267175674438477,-7.43511438369751,4.748091697692871,-17.637882232666016,28.963794708251953,0.0,30.783710479736328,-31.09267234802246,21.447513580322266,-17.271120071411133,28.58473777770996,0.0
71,-2.91552734375,-1.82373046875,-4.94482421875,7.648854732513428,-7.129770755767822,4.916030406951904,-17.625253677368164,28.950815200805664,0.0,30.82195472717285,-31.128320693969727,21.47209358215332,-17.25905990600586,28.575897216796875,0.0
76,-2.91259765625,-1.822998046875,-4.9443359375,7.4809160232543945,-7.450381755828857,4.916030406951904,-17.624109268188477,28.929697036743164,0.0,30.859359741210938,-31.165573120117188,21.496673583984375,-17.24684715270996,28.563121795654297,0.0
81,-2.9140625,-1.82373046875,-4.94189453125,7.450381755828857,-7.221374034881592,4.85496187210083,-17.63467025756836,28.951276779174805,0.0,30.8966121673584,-31.201679229736328,21.52094841003418,-17.234651565551758,28.552024841308594,0.0
86,-2.91796875,-1.822265625,-4.943115234375,7.312977313995361,-6.931297779083252,4.687022686004639,-17.61263656616211,28.98085594177246,0.0,30.933177947998047,-31.23633575439453,21.544384002685547,-17.22117805480957,28.54318618774414,0.0
91,-2.915283203125,-1.822265625,-4.9462890625,7.251908302307129,-7.083969593048096,5.190839767456055,-17.60869598388672,28.944787979125977,0.0,30.969436645507812,-31.27175521850586,21.570337295532227,-17.20729637145996,28.53084373474121,0.0
96,-2.9169921875,-1.824951171875,-4.942626953125,7.160305500030518,-7.022900581359863,4.717557430267334,-17.639629364013672,28.970556259155273,0.0,31.005237579345703,-31.306869506835938,21.59392547607422,-17.19499397277832,28.519563674926758,0.0
101,-2.91552734375,-1.824462890625,-4.94140625,7.648854732513428,-7.4809160232543945,4.931297779083252,-17.640380859375,28.964420318603516,0.0,31.043481826782227,-31.344274520874023,21.618581771850586,-17.179885864257812,28.505229949951172,0.0
106,-2.91357421875,-1.818115234375,-4.947021484375,7.664122104644775,-7.114503860473633,4.671755790710449,-17.571741104125977,28.933992385864258,0.0,31.081802368164062,-31.379846572875977,21.64194107055664,-17.161222457885742,28.490875244140625,0.0
111,-2.915283203125,-1.82568359375,-4.945068359375,7.129770755767822,-7.251908302307129,4.595419883728027,-17.642709732055664,28.944616317749023,0.0,31.117450714111328,-31.416105270385742,21.664918899536133,-17.148193359375,28.47604751586914,0.0
117,-2.91259765625,-1.822509765625,-4.9453125,7.389312744140625,-7.129770755767822,4.839694499969482,-17.61725616455078,28.92625617980957,0.0,31.15439796447754,-31.451753616333008,21.689117431640625,-17.132471084594727,28.460779190063477,0.0
122,-2.914306640625,-1.825439453125,-4.942138671875,7.496183395385742,-7.175572395324707,5.175572395324707,-17.64920425415039,28.949527740478516,0.0,31.19937515258789,-31.49480628967285,21.720170974731445,-17.110139846801758,28.439167022705078,0.0
127,-2.9140625,-1.825927734375,-4.9462890625,7.312977313995361,-7.740458011627197,4.671755790710449,-17.6436767578125,28.928794860839844,0.0,31.23594093322754,-31.53350830078125,21.7435302734375,-17.095691680908203,28.420961380004883,0.0
132,-2.917724609375,-1.8271484375,-4.94482421875,7.526717662811279,-7.343511581420898,4.885496139526367,-17.653017044067383,28.96364974975586,0.0,31.273574829101562,-31.570226669311523,21.76795768737793,-17.08030128479004,28.40590476989746,0.0
137,-2.917236328125,-1.824462890625,-4.947509765625,7.267175674438477,-7.618320465087891,4.931297779083252,-17.622732162475586,28.9522705078125,0.0,31.30990982055664,-31.608318328857422,21.792613983154297,-17.064849853515625,28.388900756835938,0.0
142,-2.916748046875,-1.8232421875,-4.946533203125,7.572519302368164,-7.267175674438477,4.870229244232178,-17.614803314208984,28.954368591308594,0.0,31.3477725982666,-31.6446533203125,21.816965103149414,-17.047481536865234,28.37354850769043,0.0
147,-2.916015625,-1.824462890625,-4.942626953125,7.389312744140625,-7.3740458488464355,5.14503812789917,-17.636632919311523,28.963207244873047,0.0,31.384719848632812,-31.6815242767334,21.842689514160156,-17.031654357910156,28.357812881469727,0.0
152,-2.910400390625,-1.822509765625,-4.939453125,7.572519302368164,-7.175572395324707,5.114503860473633,-17.635025024414062,28.93326759338379,0.0,31.422582626342773,-31.7174015045166,21.868261337280273,-17.01474380493164,28.341909408569336,0.0
157,-2.918701171875,-1.822998046875,-4.944091796875,7.572519302368164,-7.251908302307129,4.366412162780762,-17.615785598754883,28.98155975341797,0.0,31.460445404052734,-31.753660202026367,21.890092849731445,-16.997121810913086,28.327064514160156,0.0
162,-2.915771484375,-1.827392578125,-4.942626953125,7.557251930236816,-7.511450290679932,4.839694499969482,-17.663551330566406,28.956497192382812,0.0,31.498231887817383,-31.791217803955078,21.914291381835938,-16.980989456176758,28.310016632080078,0.0
167,-2.91162109375,-1.821533203125,-4.943603515625,7.4809160232543945,-7.328244209289551,5.14503812789917,-17.61406707763672,28.92705726623535,0.0,31.53563690185547,-31.82785987854004,21.94001579284668,-16.96361541748047,28.292903900146484,0.0
172,-2.91650390625,-1.8212890625,-4.946533203125,7.450381755828857,-7.282442569732666,4.58015251159668,-17.597455978393555,28.955446243286133,0.0,31.57288932800293,-31.86427116394043,21.96291732788086,-16.945858001708984,28.276798248291016,0.0
177,-2.9140625,-1.82275390625,-4.941650390625,7.648854732513428,-7.496183395385742,4.809160232543945,-17.62641716003418,28.953889846801758,0.0,31.611133575439453,-31.901752471923828,21.986963272094727,-16.927936553955078,28.259519577026367,0.0
182,-2.9140625,-1.820068359375,-4.944580078125,7.450381755828857,-7.389312744140625,5.022900581359863,-17.594789505004883,28.94550323486328,0.0,31.648386001586914,-31.93869972229004,22.01207733154297,-16.910072326660156,28.24247932434082,0.0
187,-2.916259765625,-1.822998046875,-4.946044921875,7.541984558105469,-7.312977313995361,4.748091697692871,-17.61451530456543,28.952804565429688,0.0,31.68609619140625,-31.975265502929688,22.035818099975586,-16.892282485961914,28.225961685180664,0.0
192,-2.917724609375,-1.823486328125,-4.944091796875,7.43511438369751,-7.068702220916748,4.702290058135986,-17.621641159057617,28.97265625,0.0,31.7232723236084,-32.0106086730957,22.059329986572266,-16.87517547607422,28.21109390258789,0.0
197,-2.913818359375,-1.825927734375,-4.943359375,7.526717662811279,-7.267175674438477,4.56488561630249,-17.65131378173828,28.939409255981445,0.0,31.760906219482422,-32.04694366455078,22.082155227661133,-16.85833740234375,28.194299697875977,0.0
203,-2.91259765625,-1.824462890625,-4.941162109375,7.358778476715088,-7.343511581420898,4.839694499969482,-17.645280838012695,28.94107437133789,0.0,31.8050594329834,-32.09100341796875,22.11119270324707,-16.834945678710938,28.169992446899414,0.0
208,-2.915771484375,-1.825439453125,-4.937744140625,7.72519063949585,-7.190839767456055,4.687022686004639,-17.657981872558594,28.980731964111328,0.0,31.843685150146484,-32.126956939697266,22.134628295898438,-16.81735610961914,28.154708862304688,0.0
213,-2.9150390625,-1.823486328125,-4.94970703125,7.41984748840332,-7.389312744140625,4.885496139526367,-17.611644744873047,28.92605972290039,0.0,31.88078498840332,-32.163902282714844,22.159055709838867,-16.80010414123535,28.13705825805664,0.0
218,-2.9150390625,-1.823486328125,-4.9462890625,7.5877861976623535,-7.389312744140625,4.992366313934326,-17.620121002197266,28.940813064575195,0.0,31.918724060058594,-32.20084762573242,22.184017181396484,-16.782207489013672,28.119749069213867,0.0
223,-2.9140625,-1.822509765625,-4.943603515625,7.404580116271973,-7.114503860473633,4.687022686004639,-17.619354248046875,28.945837020874023,0.0,31.955747604370117,-32.236419677734375,22.20745277404785,-16.765174865722656,28.1038818359375,0.0
228,-2.91748046875,-1.821533203125,-4.947021484375,7.4809160232543945,-6.992366313934326,4.885496139526367,-17.59703254699707,28.961074829101562,0.0,31.993152618408203,-32.27138137817383,22.23188018798828,-16.747241973876953,28.088903427124023,0.0
233,-2.909912109375,-1.826904296875,-4.9453125,7.679389476776123,-7.2366414070129395,4.916030406951904,-17.66103172302246,28.89689064025879,0.0,32.031551361083984,-32.30756378173828,22.256460189819336,-16.729747772216797,28.071252822875977,0.0
238,-2.913818359375,-1.822998046875,-4.946044921875,7.465648651123047,-7.297709941864014,4.656488418579102,-17.618083953857422,28.932479858398438,0.0,32.068878173828125,-32.344051361083984,22.279743194580078,-16.71234130859375,28.05408477783203,0.0
243,-2.916259765625,-1.822021484375,-4.94873046875,7.267175674438477,-7.14503812789917,4.946564674377441,-17.599008560180664,28.942758560180664,0.0,32.1052131652832,-32.37977600097656,22.304475784301758,-16.695491790771484,28.03787612915039,0.0
248,-2.912353515625,-1.825439453125,-4.947021484375,7.541984558105469,-7.358778476715088,4.839694499969482,-17.63993263244629,28.91218376159668,0.0,32.142921447753906,-32.416568756103516,22.32867431640625,-16.678129196166992,28.01995849609375,0.0
253,-2.915771484375,-1.824951171875,-4.943603515625,7.328244209289551,-7.4809160232543945,4.671755790710449,-17.638992309570312,28.956174850463867,0.0,32.179561614990234,-32.45397186279297,22.352033615112305,-16.661775588989258,28.002357482910156,0.0
258,-2.918212890625,-1.82666015625,-4.9453125,7.404580116271973,-7.282442569732666,4.442748069763184,-17.646663665771484,28.966381072998047,0.0,32.216583251953125,-32.49038314819336,22.37424659729004,-16.645166397094727,27.985931396484375,0.0
263,-2.9140625,-1.822021484375,-4.952392578125,7.4809160232543945,-7.343511581420898,4.7633585929870605,-17.593143463134766,28.908674240112305,0.0,32.25398635864258,-32.527099609375,22.39806365966797,-16.627103805541992,27.968046188354492,0.0
268,-2.913330078125,-1.824462890625,-4.93994140625,7.5877861976623535,-7.618320465087891,4.839694499969482,-17.647241592407227,28.952451705932617,0.0,32.29192352294922,-32.565189361572266,22.42226219177246,-16.60957908630371,27.949682235717773,0.0
273,-2.911865234375,-1.8271484375,-4.9462890625,7.465648651123047,-7.450381755828857,4.732824325561523,-17.657957077026367,28.90855598449707,0.0,32.32925033569336,-32.602439880371094,22.445926666259766,-16.59284782409668,27.93132781982422,0.0
278,-2.91259765625,-1.822998046875,-4.9443359375,7.557251930236816,-7.511450290679932,4.946564674377441,-17.624109268188477,28.929697036743164,0.0,32.367034912109375,-32.63999557495117,22.470659255981445,-16.575010299682617,27.913101196289062,0.0
284,-2.914306640625,-1.82275390625,-4.94287109375,7.770992279052734,-7.343511581420898,4.85496187210083,-17.623029708862305,28.950645446777344,0.0,32.41366195678711,-32.68405532836914,22.499788284301758,-16.548505783081055,27.888919830322266,0.0
289,-2.916748046875,-1.821044921875,-4.944580078125,7.41984748840332,-7.007633686065674,5.328244209289551,-17.59972381591797,28.96630859375,0.0,32.45075988769531,-32.719093322753906,22.526430130004883,-16.531095504760742,27.874008178710938,0.0
294,-2.910888671875,-1.821044921875,-4.942138671875,7.572519302368164,-7.053435325622559,5.129770755767822,-17.614343643188477,28.928062438964844,0.0,32.48862075805664,-32.75436019897461,22.552078247070312,-16.513202667236328,27.858144760131836,0.0
299,-2.9140625,-1.820068359375,-4.94091796875,7.603053569793701,-7.2366414070129395,4.732824325561523,-17.603870391845703,28.961339950561523,0.0,32.526634216308594,-32.79054260253906,22.575742721557617,-16.4949893951416,27.841951370239258,0.0
304,-2.911865234375,-1.820068359375,-4.943603515625,7.190839767456055,-7.2366414070129395,4.870229244232178,-17.600419998168945,28.93142318725586,0.0,32.56258773803711,-32.826725006103516,22.600093841552734,-16.478763580322266,27.825225830078125,0.0
309,-2.915771484375,-1.823974609375,-4.942626953125,7.297709941864014,-7.312977313995361,4.839694499969482,-17.6325626373291,28.96195411682129,0.0,32.59907531738281,-32.86328887939453,22.624292373657227,-16.462549209594727,27.808645248413086,0.0
314,-2.91552734375,-1.824951171875,-4.94873046875,7.14503812789917,-7.175572395324707,5.114503860473633,-17.62662696838379,28.932004928588867,0.0,32.63479995727539,-32.899166107177734,22.649864196777344,-16.446971893310547,27.792234420776367,0.0
319,-2.9130859375,-1.8271484375,-4.935791015625,7.190839767456055,-7.099236488342285,4.702290058135986,-17.682296752929688,28.96407127380371,0.0,32.670753479003906,-32.934661865234375,22.673376083374023,-16.43206787109375,27.776729583740234,0.0
324,-2.91259765625,-1.824951171875,-4.9384765625,7.755725383758545,-7.083969593048096,4.809160232543945,-17.656389236450195,28.951902389526367,0.0,32.70953369140625,-32.9700813293457,22.69742202758789,-16.413917541503906,27.761079788208008,0.0
329,-2.9140625,-1.82421875,-4.94189453125,7.511450290679932,-7.465648651123047,4.946564674377441,-17.63909912109375,28.950498580932617,0.0,32.74708938598633,-33.007408142089844,22.72215461730957,-16.396703720092773,27.743515014648438,0.0
334,-2.9130859375,-1.825927734375,-4.940673828125,7.572519302368164,-7.465648651123047,4.58015251159668,-17.65906524658203,28.944913864135742,0.0,32.784950256347656,-33.044734954833984,22.74505615234375,-16.379512786865234,27.725881576538086,0.0
339,-2.91162109375,-1.82373046875,-4.941162109375,7.450381755828857,-7.328244209289551,4.946564674377441,-17.640066146850586,28.934106826782227,0.0,32.822200775146484,-33.08137512207031,22.76978874206543,-16.362627029418945,27.70877456665039,0.0
344,-2.9130859375,-1.82568359375,-4.938720703125,7.72519063949585,-7.511450290679932,4.916030406951904,-17.661710739135742,28.953744888305664,0.0,32.8608283996582,-33.11893081665039,22.794368743896484,-16.3447265625,27.69108772277832,0.0
349,-2.9150390625,-1.8232421875,-4.94482421875,7.450381755828857,-7.465648651123047,4.931297779083252,-17.621540069580078,28.947528839111328,0.0,32.89807891845703,-33.15625762939453,22.81902503967285,-16.327579498291016,27.673553466796875,0.0
354,-2.911865234375,-1.82275390625,-4.9521484375,7.160305500030518,-7.160305500030518,4.748091697692871,-17.603586196899414,28.89027976989746,0.0,32.93387985229492,-33.19205856323242,22.84276580810547,-16.311603546142578,27.656681060791016,0.0
359,-2.91552734375,-1.825439453125,-4.94287109375,7.43511438369751,-7.2366414070129395,4.916030406951904,-17.64559555053711,28.956527709960938,0.0,32.97105407714844,-33.228240966796875,22.867345809936523,-16.29490089416504,27.64044761657715,0.0
365,-2.9140625,-1.820556640625,-4.947265625,7.572519302368164,-7.282442569732666,4.793893337249756,-17.592565536499023,28.933124542236328,0.0,33.0164909362793,-33.271934509277344,22.896108627319336,-16.26930809020996,27.61649513244629,0.0
370,-2.9150390625,-1.824462890625,-4.942138671875,7.389312744140625,-7.2366414070129395,4.7633585929870605,-17.6392765045166,28.95718765258789,0.0,33.053436279296875,-33.3081169128418,22.919925689697266,-16.252904891967773,27.600418090820312,0.0
375,-2.91357421875,-1.8271484375,-4.944091796875,7.175572395324707,-7.175572395324707,4.366412162780762,-17.660919189453125,28.932266235351562,0.0,33.08931350708008,-33.343994140625,22.941757202148438,-16.237869262695312,27.58428382873535,0.0
380,-2.91650390625,-1.8232421875,-4.943603515625,7.572519302368164,-7.190839767456055,4.687022686004639,-17.622425079345703,28.964996337890625,0.0,33.127174377441406,-33.379947662353516,22.965192794799805,-16.220308303833008,27.56855010986328,0.0
385,-2.912109375,-1.8291015625,-4.946044921875,7.5877861976623535,-7.083969593048096,4.900763511657715,-17.6759090423584,28.90852928161621,0.0,33.16511154174805,-33.415367126464844,22.989696502685547,-16.20345115661621,27.55254364013672,0.0
390,-2.913330078125,-1.82275390625,-4.94921875,7.43511438369751,-6.870229244232178,4.595419883728027,-17.60871124267578,28.91510581970215,0.0,33.20228576660156,-33.4497184753418,23.01267433166504,-16.186412811279297,27.537694931030273,0.0
395,-2.9140625,-1.81982421875,-4.9482421875,7.160305500030518,-7.206106662750244,4.778625965118408,-17.583505630493164,28.930070877075195,0.0,33.23808670043945,-33.485748291015625,23.03656768798828,-16.1704044342041,27.521394729614258,0.0
400,-2.919921875,-1.824462890625,-4.94677734375,7.3740458488464355,-7.312977313995361,4.793893337249756,-17.62061882019043,28.977771759033203,0.0,33.27495574951172,-33.52231216430664,23.060537338256836,-16.153858184814453,27.505233764648438,0.0
405,-2.915771484375,-1.8212890625,-4.941162109375,7.41984748840332,-7.007633686065674,4.442748069763184,-17.611839294433594,28.972572326660156,0.0,33.31205368041992,-33.557350158691406,23.08275032043457,-16.136981964111328,27.49051856994629,0.0
410,-2.9169921875,-1.822265625,-4.947021484375,7.099236488342285,-7.14503812789917,4.534351348876953,-17.604385375976562,28.955846786499023,0.0,33.34754943847656,-33.593074798583984,23.105422973632812,-16.12160873413086,27.474891662597656,0.0
415,-2.9130859375,-1.82275390625,-4.941162109375,7.190839767456055,-7.358778476715088,4.977099418640137,-17.629060745239258,28.94786834716797,0.0,33.38350296020508,-33.62986755371094,23.130308151245117,-16.10611343383789,27.458110809326172,0.0
420,-2.91943359375,-1.82568359375,-4.946044921875,7.267175674438477,-7.206106662750244,4.503816604614258,-17.63421058654785,28.974929809570312,0.0,33.419837951660156,-33.665897369384766,23.1528263092041,-16.090312957763672,27.442462921142578,0.0
425,-2.916259765625,-1.828125,-4.947509765625,7.282442569732666,-7.129770755767822,4.946564674377441,-17.657339096069336,28.938310623168945,0.0,33.45624923706055,-33.70154571533203,23.17755889892578,-16.074745178222656,27.426721572875977,0.0
430,-2.913330078125,-1.822021484375,-4.93798828125,7.4809160232543945,-7.511450290679932,4.732824325561523,-17.629940032958984,28.964797973632812,0.0,33.49365234375,-33.73910140991211,23.201223373413086,-16.057846069335938,27.40945053100586,0.0
435,-2.912109375,-1.822998046875,-4.9375,7.328244209289551,-7.3740458488464355,4.793893337249756,-17.641807556152344,28.955177307128906,0.0,33.53029251098633,-33.775970458984375,23.22519302368164,-16.041873931884766,27.392765045166016,0.0
440,-2.913330078125,-1.82373046875,-4.9423828125,7.4809160232543945,-7.328244209289551,4.549618244171143,-17.63452911376953,28.943065643310547,0.0,33.56769561767578,-33.8126106262207,23.247941970825195,-16.025068283081055,27.376178741455078,0.0
446,-2.9150390625,-1.82958984375,-4.945556640625,7.404580116271973,-7.053435325622559,4.778625965118408,-17.67725372314453,28.93424415588379,0.0,33.61212158203125,-33.85493087768555,23.276613235473633,-16.001920700073242,27.353931427001953,0.0
451,-2.916015625,-1.828125,-4.939208984375,7.328244209289551,-7.389312744140625,4.7633585929870605,-17.67833709716797,28.972131729125977,0.0,33.64876174926758,-33.891876220703125,23.300430297851562,-15.986573219299316,27.33755874633789,0.0
456,-2.91845703125,-1.8232421875,-4.942626953125,7.72519063949585,-7.267175674438477,4.885496139526367,-17.62198829650879,28.9854736328125,0.0,33.6873893737793,-33.9282112121582,23.324857711791992,-15.968573570251465,27.321975708007812,0.0
461,-2.9169921875,-1.822998046875,-4.953369140625,7.206106662750244,-7.496183395385742,4.595419883728027,-17.595304489135742,28.927284240722656,0.0,33.723419189453125,-33.96569061279297,23.347835540771484,-15.952852249145508,27.3045597076416,0.0
466,-2.916015625,-1.825439453125,-4.945556640625,7.267175674438477,-7.465648651123047,4.702290058135986,-17.638212203979492,28.948991775512695,0.0,33.7597541809082,-34.00301742553711,23.371347427368164,-15.937366485595703,27.28759765625,0.0
471,-2.91259765625,-1.821044921875,-4.94140625,7.664122104644775,-7.4809160232543945,4.992366313934326,-17.613662719726562,28.94546890258789,0.0,33.79807662963867,-34.04042053222656,23.39630889892578,-15.919636726379395,27.270551681518555,0.0
476,-2.912841796875,-1.821044921875,-4.952880859375,7.328244209289551,-7.282442569732666,4.839694499969482,-17.58486557006836,28.897960662841797,0.0,33.834716796875,-34.07683181762695,23.420507431030273,-15.903264999389648,27.253955841064453,0.0
481,-2.912109375,-1.81982421875,-4.946533203125,7.404580116271973,-7.465648651123047,4.900763511657715,-17.590587615966797,28.921188354492188,0.0,33.87173843383789,-34.114158630371094,23.445011138916016,-15.886611938476562,27.23676300048828,0.0
486,-2.913330078125,-1.8251953125,-4.94775390625,7.3740458488464355,-7.358778476715088,4.5190839767456055,-17.63447380065918,28.917543411254883,0.0,33.908607482910156,-34.15095138549805,23.467607498168945,-15.87065601348877,27.220096588134766,0.0
491,-2.913330078125,-1.824951171875,-4.950439453125,7.43511438369751,-7.251908302307129,4.885496139526367,-17.62559700012207,28.906349182128906,0.0,33.94578170776367,-34.18721008300781,23.492034912109375,-15.854316711425781,27.20386505126953,0.0
496,-2.914794921875,-1.826904296875,-4.9462890625,7.282442569732666,-7.3740458488464355,5.068702220916748,-17.651456832885742,28.93333625793457,0.0,33.98219299316406,-34.22407913208008,23.517377853393555,-15.839056015014648,27.18737030029297,0.0
501,-2.914794921875,-1.82568359375,-4.943359375,7.297709941864014,-7.496183395385742,4.793893337249756,-17.647668838500977,28.94793128967285,0.0,34.018680572509766,-34.261558532714844,23.54134750366211,-15.823690414428711,27.170473098754883,0.0
506,-2.917724609375,-1.825927734375,-4.941162109375,7.496183395385742,-7.114503860473633,4.992366313934326,-17.65104866027832,28.981428146362305,0.0,34.05615997314453,-34.2971305847168,23.566308975219727,-15.80739688873291,27.155879974365234,0.0
511,-2.91650390625,-1.820556640625,-4.950927734375,7.3740458488464355,-7.5877861976623535,4.900763511657715,-17.579938888549805,28.937631607055664,0.0,34.0930290222168,-34.33506774902344,23.59081268310547,-15.790932655334473,27.13846206665039,0.0
516,-2.920166015625,-1.823974609375,-4.94970703125,7.2366414070129395,-7.389312744140625,4.824427604675293,-17.608583450317383,28.967924118041992,0.0,34.12921142578125,-34.372013092041016,23.61493492126465,-15.775503158569336,27.12240982055664,0.0
521,-2.913818359375,-1.820556640625,-4.94384765625,7.4809160232543945,-7.267175674438477,4.656488418579102,-17.601390838623047,28.945858001708984,0.0,34.1666145324707,-34.408348083496094,23.63821792602539,-15.758808135986328,27.106746673583984,0.0
527,-2.9111328125,-1.819091796875,-4.94384765625,7.099236488342285,-7.251908302307129,4.58015251159668,-17.592023849487305,28.925819396972656,0.0,34.20920944213867,-34.45185852050781,23.665699005126953,-15.736949920654297,27.083826065063477,0.0
532,-2.915771484375,-1.82568359375,-4.941162109375,7.541984558105469,-7.068702220916748,4.85496187210083,-17.65169906616211,28.965559005737305,0.0,34.246917724609375,-34.48720169067383,23.689973831176758,-15.720673561096191,27.069528579711914,0.0
537,-2.914794921875,-1.82666015625,-4.934814453125,7.389312744140625,-7.251908302307129,4.717557430267334,-17.677783966064453,28.983320236206055,0.0,34.28386306762695,-34.523460388183594,23.71356201171875,-15.705466270446777,27.054529190063477,0.0
542,-2.9130859375,-1.82177734375,-4.944091796875,7.312977313995361,-7.206106662750244,4.778625965118408,-17.61292839050293,28.9367618560791,0.0,34.32042694091797,-34.55949020385742,23.737455368041992,-15.689950942993164,27.039270401000977,0.0
547,-2.915283203125,-1.824462890625,-4.94482421875,7.5877861976623535,-7.664122104644775,4.595419883728027,-17.63224983215332,28.947616577148438,0.0,34.35836410522461,-34.59781265258789,23.760433197021484,-15.673310279846191,27.021886825561523,0.0
552,-2.915283203125,-1.82080078125,-4.950439453125,7.465648651123047,-7.251908302307129,4.473282337188721,-17.58513832092285,28.929195404052734,0.0,34.39569091796875,-34.634071350097656,23.782798767089844,-15.656808853149414,27.006393432617188,0.0
557,-2.916015625,-1.82470703125,-4.94287109375,7.603053569793701,-7.114503860473633,4.503816604614258,-17.638240814208984,28.961761474609375,0.0,34.4337043762207,-34.66964340209961,23.805316925048828,-15.640230178833008,26.991954803466797,0.0
562,-2.9130859375,-1.82373046875,-4.942138671875,7.572519302368164,-7.251908302307129,4.885496139526367,-17.635494232177734,28.942089080810547,0.0,34.47156524658203,-34.705902099609375,23.829744338989258,-15.623810768127441,26.976646423339844,0.0
567,-2.913818359375,-1.82470703125,-4.941650390625,7.648854732513428,-7.312977313995361,4.717557430267334,-17.64449119567871,28.948740005493164,0.0,34.50981140136719,-34.74246597290039,23.85333251953125,-15.607145309448242,26.961132049560547,0.0
572,-2.9169921875,-1.822265625,-4.9404296875,7.43511438369751,-7.282442569732666,4.503816604614258,-17.6207275390625,28.98434829711914,0.0,34.5469856262207,-34.77887725830078,23.875850677490234,-15.591329574584961,26.9461727142334,0.0
577,-2.9130859375,-1.824951171875,-4.94775390625,7.43511438369751,-7.511450290679932,4.85496187210083,-17.632617950439453,28.9158992767334,0.0,34.58415985107422,-34.81643295288086,23.90012550354004,-15.57567024230957,26.929393768310547,0.0
582,-2.916748046875,-1.81884765625,-4.953369140625,7.450381755828857,-7.251908302307129,4.717557430267334,-17.558063507080078,28.931835174560547,0.0,34.62141036987305,-34.852691650390625,23.92371368408203,-15.559199333190918,26.914112091064453,0.0
587,-2.91357421875,-1.81591796875,-4.948486328125,7.526717662811279,-7.099236488342285,4.793893337249756,-17.548189163208008,28.931150436401367,0.0,34.65904235839844,-34.888187408447266,23.947683334350586,-15.542293548583984,26.899608612060547,0.0
592,-2.916259765625,-1.824951171875,-4.943603515625,7.358778476715088,-7.450381755828857,5.114503860473633,-17.638277053833008,28.96023941040039,0.0,34.69583511352539,-34.925437927246094,23.973255157470703,-15.527185440063477,26.88368797302246,0.0
597,-2.911865234375,-1.8271484375,-4.93994140625,7.511450290679932,-7.099236488342285,4.7633585929870605,-17.673751831054688,28.935958862304688,0.0,34.73339080810547,-34.960933685302734,23.997072219848633,-15.511707305908203,26.86929702758789,0.0
602,-2.915771484375,-1.82421875,-4.9443359375,7.160305500030518,-7.297709941864014,4.671755790710449,-17.630535125732422,28.954177856445312,0.0,34.76919174194336,-34.99742126464844,24.020431518554688,-15.497562408447266,26.854129791259766,0.0
608,-2.90966796875,-1.823974609375,-4.947021484375,7.4809160232543945,-7.496183395385742,4.732824325561523,-17.630578994750977,28.89215087890625,0.0,34.80659484863281,-35.0349006652832,24.044095993041992,-15.481850624084473,26.837392807006836,0.0
613,-2.91162109375,-1.82421875,-4.948974609375,7.43511438369751,-7.190839767456055,4.595419883728027,-17.625089645385742,28.89960479736328,0.0,34.85120391845703,-35.07804489135742,24.07166862487793,-15.459028244018555,26.815216064453125,0.0
618,-2.9150390625,-1.82080078125,-4.93896484375,7.465648651123047,-7.557251930236816,4.839694499969482,-17.61393165588379,28.97675895690918,0.0,34.88853073120117,-35.11582946777344,24.095867156982422,-15.443412780761719,26.799211502075195,0.0
623,-2.91552734375,-1.826904296875,-4.942138671875,7.526717662811279,-7.297709941864014,4.549618244171143,-17.66069793701172,28.957353591918945,0.0,34.92616271972656,-35.15231704711914,24.118616104125977,-15.427990913391113,26.784339904785156,0.0
628,-2.91357421875,-1.823974609375,-4.942626953125,7.633587837219238,-7.3740458488464355,4.748091697692871,-17.635780334472656,28.943655014038086,0.0,34.96432876586914,-35.189186096191406,24.142356872558594,-15.411828994750977,26.76898765563965,0.0
633,-2.91455078125,-1.824462890625,-4.947998046875,7.328244209289551,-7.328244209289551,4.732824325561523,-17.625446319580078,28.92781639099121,0.0,35.00096893310547,-35.225826263427734,24.1660213470459,-15.397120475769043,26.75374412536621,0.0
638,-2.912353515625,-1.822998046875,-4.939697265625,7.175572395324707,-7.343511581420898,4.534351348876953,-17.635988235473633,28.947710037231445,0.0,35.03684616088867,-35.262542724609375,24.18869400024414,-15.383298873901367,26.73865509033203,0.0
643,-2.917236328125,-1.823974609375,-4.941162109375,7.496183395385742,-7.160305500030518,4.946564674377441,-17.63405418395996,28.980484008789062,0.0,35.07432556152344,-35.298343658447266,24.21342658996582,-15.367891311645508,26.724824905395508,0.0
648,-2.919189453125,-1.823486328125,-4.943359375,7.022900581359863,-7.603053569793701,4.56488561630249,-17.621313095092773,28.988012313842773,0.0,35.109439849853516,-35.33635711669922,24.236251831054688,-15.354742050170898,26.70889663696289,0.0
653,-2.91455078125,-1.822265625,-4.943359375,7.404580116271973,-7.053435325622559,4.809160232543945,-17.617033004760742,28.95134925842285,0.0,35.146461486816406,-35.37162399291992,24.260297775268555,-15.339678764343262,26.695383071899414,0.0
658,-2.9150390625,-1.82421875,-4.95068359375,7.450381755828857,-7.190839767456055,4.656488418579102,-17.615861892700195,28.920682907104492,0.0,35.183712005615234,-35.40757751464844,24.283580780029297,-15.324413299560547,26.680919647216797,0.0
663,-2.9169921875,-1.822509765625,-4.936767578125,7.14503812789917,-7.404580116271973,4.839694499969482,-17.63203239440918,28.99981117248535,0.0,35.21943664550781,-35.44459915161133,24.30777931213379,-15.310850143432617,26.66617774963379,0.0
668,-2.9150390625,-1.822265625,-4.945068359375,7.557251930236816,-6.85496187210083,5.099236488342285,-17.612079620361328,28.948028564453125,0.0,35.25722122192383,-35.47887420654297,24.333274841308594,-15.295080184936523,26.653703689575195,0.0
673,-2.91748046875,-1.824462890625,-4.946533203125,7.70992374420166,-7.053435325622559,4.900763511657715,-17.62479591369629,28.958518981933594,0.0,35.295772552490234,-35.51414108276367,24.357778549194336,-15.278717994689941,26.64035987854004,0.0
678,-2.91748046875,-1.826416015625,-4.953369140625,7.450381755828857,-7.175572395324707,5.038167953491211,-17.625539779663086,28.925914764404297,0.0,35.33302307128906,-35.550018310546875,24.38296890258789,-15.26369857788086,26.626131057739258,0.0
683,-2.914794921875,-1.82470703125,-4.94287109375,7.72519063949585,-7.43511438369751,4.793893337249756,-17.64002799987793,28.95159912109375,0.0,35.37165069580078,-35.58719253540039,24.406938552856445,-15.247489929199219,26.61088752746582,0.0
689,-2.916015625,-1.825439453125,-4.943603515625,7.496183395385742,-7.3740458488464355,4.977099418640137,-17.6430606842041,28.957427978515625,0.0,35.40913009643555,-35.624061584472656,24.43182373046875,-15.232492446899414,26.596040725708008,0.0
694,-2.91650390625,-1.824951171875,-4.94384765625,7.70992374420166,-7.068702220916748,5.14503812789917,-17.637313842773438,28.96121597290039,0.0,35.45539093017578,-35.666473388671875,24.46269416809082,-15.208829879760742,26.575824737548828,0.0
699,-2.91748046875,-1.82177734375,-4.950927734375,7.4809160232543945,-7.572519302368164,4.687022686004639,-17.589576721191406,28.943815231323242,0.0,35.492794036865234,-35.7043342590332,24.486129760742188,-15.193619728088379,26.56004524230957,0.0
704,-2.917236328125,-1.82275390625,-4.942138671875,7.343511581420898,-7.083969593048096,4.748091697692871,-17.62055778503418,28.978206634521484,0.0,35.529510498046875,-35.73975372314453,24.509870529174805,-15.17941665649414,26.547048568725586,0.0
709,-2.912841796875,-1.820068359375,-4.94775390625,7.297709941864014,-7.2366414070129395,4.7633585929870605,-17.588708877563477,28.921628952026367,0.0,35.56599807739258,-35.775936126708984,24.533687591552734,-15.165184020996094,26.53280258178711,0.0
714,-2.91357421875,-1.82080078125,-4.9462890625,7.5877861976623535,-7.404580116271973,4.458015441894531,-17.597909927368164,28.932889938354492,0.0,35.60393524169922,-35.812957763671875,24.55597686767578,-15.149632453918457,26.51786231994629,0.0
719,-2.912841796875,-1.823974609375,-4.94677734375,7.847328186035156,-7.160305500030518,4.977099418640137,-17.62654685974121,28.919633865356445,0.0,35.64317321777344,-35.848758697509766,24.580862045288086,-15.133099555969238,26.504056930541992,0.0
724,-2.914794921875,-1.824951171875,-4.94775390625,7.160305500030518,-7.190839767456055,5.251908302307129,-17.63011932373047,28.930126190185547,0.0,35.67897415161133,-35.88471221923828,24.60712242126465,-15.1200590133667,26.4902286529541,0.0
729,-2.91357421875,-1.822998046875,-4.94482421875,7.206106662750244,-7.312977313995361,4.7633585929870605,-17.621469497680664,28.935720443725586,0.0,35.715003967285156,-35.9212760925293,24.630939483642578,-15.106739044189453,26.47587776184082,0.0
734,-2.91064453125,-1.826171875,-4.945068359375,7.221374034881592,-7.312977313995361,4.5190839767456055,-17.653926849365234,28.90521240234375,0.0,35.7511100769043,-35.95783996582031,24.653535842895508,-15.093660354614258,26.461294174194336,0.0
739,-2.9140625,-1.828125,-4.939697265625,7.41984748840332,-7.328244209289551,4.458015441894531,-17.679990768432617,28.95375633239746,0.0,35.7882080078125,-35.99448013305664,24.675825119018555,-15.079855918884277,26.44710922241211,0.0
744,-2.91259765625,-1.82373046875,-4.93505859375,7.41984748840332,-6.885496139526367,4.56488561630249,-17.653812408447266,28.96864128112793,0.0,35.8253059387207,-36.028907775878906,24.698650360107422,-15.065851211547852,26.43528938293457,0.0
749,-2.913818359375,-1.82421875,-4.9462890625,7.206106662750244,-7.358778476715088,4.916030406951904,-17.628543853759766,28.92948341369629,0.0,35.86133575439453,-36.06570053100586,24.723230361938477,-15.052717208862305,26.420795440673828,0.0
754,-2.918701171875,-1.82421875,-4.94287109375,7.511450290679932,-7.343511581420898,4.6259541511535645,-17.629878997802734,28.984891891479492,0.0,35.89889144897461,-36.1024169921875,24.746360778808594,-15.038110733032227,26.406906127929688,0.0
759,-2.9140625,-1.822998046875,-4.946044921875,7.511450290679932,-7.14503812789917,4.56488561630249,-17.617727279663086,28.934513092041016,0.0,35.93644714355469,-36.13814163208008,24.76918601989746,-15.02344036102295,26.393596649169922,0.0
764,-2.911376953125,-1.822265625,-4.942626953125,7.770992279052734,-7.450381755828857,4.671755790710449,-17.623493194580078,28.928077697753906,0.0,35.975303649902344,-36.175392150878906,24.792545318603516,-15.007577896118164,26.378751754760742,0.0
770,-2.918212890625,-1.825927734375,-4.941650390625,7.312977313995361,-7.511450290679932,4.610687255859375,-17.649118423461914,28.98337745666504,0.0,36.01186752319336,-36.212947845458984,24.81559944152832,-14.9942626953125,26.364131927490234,0.0
775,-2.9130859375,-1.820068359375,-4.94189453125,7.41984748840332,-7.389312744140625,5.099236488342285,-17.602874755859375,28.948978424072266,0.0,36.0563850402832,-36.25728225708008,24.846195220947266,-14.97274398803711,26.342588424682617,0.0
780,-2.914306640625,-1.8251953125,-4.948486328125,7.328244209289551,-7.572519302368164,4.824427604675293,-17.631227493286133,28.922510147094727,0.0,36.09302520751953,-36.295143127441406,24.870317459106445,-14.95938491821289,26.32733917236328,0.0
785,-2.914306640625,-1.82373046875,-4.937744140625,7.450381755828857,-7.4809160232543945,4.793893337249756,-17.64462661743164,28.97126007080078,0.0,36.13027572631836,-36.33254623413086,24.894287109375,-14.945569038391113,26.31301498413086,0.0
790,-2.917724609375,-1.82470703125,-4.947265625,7.450381755828857,-7.282442569732666,4.534351348876953,-17.624834060668945,28.95699691772461,0.0,36.16752624511719,-36.36895751953125,24.916959762573242,-14.931621551513672,26.299596786499023,0.0
795,-2.91650390625,-1.82666015625,-4.94384765625,7.160305500030518,-7.389312744140625,4.687022686004639,-17.65280532836914,28.9584903717041,0.0,36.20332717895508,-36.40590286254883,24.94039535522461,-14.919389724731445,26.285696029663086,0.0
800,-2.91552734375,-1.82080078125,-4.942626953125,7.282442569732666,-6.961832046508789,4.687022686004639,-17.60413360595703,28.964981079101562,0.0,36.23973846435547,-36.440711975097656,24.963830947875977,-14.906163215637207,26.274011611938477,0.0
805,-2.91650390625,-1.8271484375,-4.9443359375,7.404580116271973,-7.328244209289551,4.885496139526367,-17.656017303466797,28.95560073852539,0.0,36.27676010131836,-36.477352142333984,24.988258361816406,-14.892807006835938,26.260452270507812,0.0
810,-2.913818359375,-1.822265625,-4.940673828125,7.343511581420898,-7.343511581420898,4.442748069763184,-17.624771118164062,28.956859588623047,0.0,36.3134765625,-36.514068603515625,25.01047134399414,-14.879524230957031,26.246868133544922,0.0
815,-2.91455078125,-1.826416015625,-4.9482421875,7.557251930236816,-6.992366313934326,4.870229244232178,-17.64253807067871,28.923654556274414,0.0,36.351261138916016,-36.54903030395508,25.034822463989258,-14.865367889404297,26.234785079956055,0.0
820,-2.916748046875,-1.82666015625,-4.93896484375,7.770992279052734,-7.496183395385742,4.900763511657715,-17.66458511352539,28.981630325317383,0.0,36.39011764526367,-36.586509704589844,25.059326171875,-14.850381851196289,26.220720291137695,0.0
825,-2.913330078125,-1.8251953125,-4.94580078125,7.450381755828857,-7.43511438369751,4.809160232543945,-17.63932228088379,28.92597198486328,0.0,36.4273681640625,-36.62368392944336,25.083372116088867,-14.836824417114258,26.20653533935547,0.0
830,-2.91455078125,-1.82763671875,-4.939697265625,7.541984558105469,-7.282442569732666,4.7633585929870605,-17.674846649169922,28.95860481262207,0.0,36.4650764465332,-36.66009521484375,25.107189178466797,-14.823148727416992,26.193429946899414,0.0
835,-2.9140625,-1.824462890625,-4.944091796875,7.679389476776123,-7.038167953491211,4.610687255859375,-17.635854721069336,28.940614700317383,0.0,36.503475189208984,-36.69528579711914,25.1302433013916,-14.808507919311523,26.18142318725586,0.0
840,-2.9169921875,-1.822998046875,-4.946533203125,7.6946563720703125,-7.312977313995361,5.038167953491211,-17.612234115600586,28.956789016723633,0.0,36.54195022583008,-36.731849670410156,25.155433654785156,-14.793644905090332,26.168216705322266,0.0
845,-2.9130859375,-1.822998046875,-4.944091796875,7.282442569732666,-7.343511581420898,4.916030406951904,-17.624000549316406,28.934816360473633,0.0,36.57836151123047,-36.7685661315918,25.18001365661621,-14.780976295471191,26.15471649169922,0.0
850,-2.919189453125,-1.823486328125,-4.939697265625,7.43511438369751,-7.14503812789917,4.870229244232178,-17.63039779663086,29.00385856628418,0.0,36.615535736083984,-36.804290771484375,25.204364776611328,-14.767638206481934,26.14281463623047,0.0
856,-2.916259765625,-1.822998046875,-4.943115234375,7.190839767456055,-7.221374034881592,4.5190839767456055,-17.621780395507812,28.965463638305664,0.0,36.6586799621582,-36.847618103027344,25.23147964477539,-14.748405456542969,26.123140335083008,0.0
861,-2.91748046875,-1.823486328125,-4.945068359375,7.648854732513428,-7.328244209289551,4.839694499969482,-17.619577407836914,28.96640396118164,0.0,36.69692611694336,-36.88425827026367,25.255678176879883,-14.73410415649414,26.110198974609375,0.0
866,-2.913330078125,-1.82080078125,-4.939208984375,7.465648651123047,-7.328244209289551,4.748091697692871,-17.615829467773438,28.961463928222656,0.0,36.7342529296875,-36.9208984375,25.2794189453125,-14.72072982788086,26.09725570678711,0.0
871,-2.915283203125,-1.823974609375,-4.9423828125,7.251908302307129,-7.450381755828857,4.946564674377441,-17.63388442993164,28.958942413330078,0.0,36.770511627197266,-36.95814895629883,25.30415153503418,-14.70860481262207,26.083724975585938,0.0
876,-2.914794921875,-1.82080078125,-4.94677734375,7.72519063949585,-7.282442569732666,4.534351348876953,-17.594919204711914,28.94094467163086,0.0,36.809139251708984,-36.99456024169922,25.326824188232422,-14.693846702575684,26.070926666259766,0.0
881,-2.913330078125,-1.8251953125,-4.9453125,7.267175674438477,-7.114503860473633,4.839694499969482,-17.640535354614258,28.92807960510254,0.0,36.84547424316406,-37.03013229370117,25.351022720336914,-14.68178653717041,26.058895111083984,0.0
886,-2.91162109375,-1.8212890625,-4.941650390625,7.526717662811279,-7.175572395324707,4.488549709320068,-17.61669921875,28.93588638305664,0.0,36.88310623168945,-37.066009521484375,25.373464584350586,-14.668277740478516,26.04665756225586,0.0
891,-2.913818359375,-1.825439453125,-4.948486328125,7.526717662811279,-6.931297779083252,4.885496139526367,-17.634153366088867,28.918058395385742,0.0,36.920738220214844,-37.10066604614258,25.397891998291016,-14.65495491027832,26.035524368286133,0.0
896,-2.9150390625,-1.82080078125,-4.946533203125,7.206106662750244,-7.389312744140625,4.931297779083252,-17.59516716003418,28.94403076171875,0.0,36.95676803588867,-37.137611389160156,25.422548294067383,-14.642951011657715,26.022356033325195,0.0
901,-2.916748046875,-1.825927734375,-4.93408203125,7.251908302307129,-7.14503812789917,4.534351348876953,-17.670085906982422,29.003936767578125,0.0,36.99302673339844,-37.173336029052734,25.445220947265625,-14.63135814666748,26.010927200317383,0.0
906,-2.913818359375,-1.823974609375,-4.941650390625,7.3740458488464355,-7.343511581420898,4.717557430267334,-17.637847900390625,28.949909210205078,0.0,37.0298957824707,-37.210052490234375,25.468809127807617,-14.61893081665039,25.99810791015625,0.0
911,-2.915771484375,-1.821533203125,-4.943115234375,7.389312744140625,-7.41984748840332,5.053435325622559,-17.609209060668945,28.963733673095703,0.0,37.06684112548828,-37.24715042114258,25.494075775146484,-14.606236457824707,25.985063552856445,0.0
916,-2.91455078125,-1.820556640625,-4.952880859375,7.221374034881592,-7.282442569732666,4.824427604675293,-17.577953338623047,28.91295623779297,0.0,37.10294723510742,-37.28356170654297,25.518198013305664,-14.594165802001953,25.972341537475586,0.0
921,-2.913818359375,-1.8271484375,-4.94482421875,7.343511581420898,-7.389312744140625,4.687022686004639,-17.65873908996582,28.93113899230957,0.0,37.13966369628906,-37.32050704956055,25.54163360595703,-14.582171440124512,25.95927619934082,0.0
926,-2.916015625,-1.8212890625,-4.94775390625,7.41984748840332,-7.282442569732666,4.534351348876953,-17.595144271850586,28.946109771728516,0.0,37.176761627197266,-37.35691833496094,25.564306259155273,-14.569328308105469,25.94690704345703,0.0
931,-2.914306640625,-1.82421875,-4.9482421875,7.328244209289551,-7.282442569732666,5.267175674438477,-17.622983932495117,28.92511749267578,0.0,37.213401794433594,-37.39332962036133,25.59064292907715,-14.557204246520996,25.934412002563477,0.0
937,-2.916259765625,-1.8271484375,-4.93408203125,7.41984748840332,-7.4809160232543945,4.488549709320068,-17.681882858276367,28.99791145324707,0.0,37.25791931152344,-37.43821334838867,25.61757469177246,-14.537829399108887,25.914188385009766,0.0
942,-2.914306640625,-1.82373046875,-4.9443359375,7.5877861976623535,-7.038167953491211,4.656488418579102,-17.628252029418945,28.942760467529297,0.0,37.29585647583008,-37.47340393066406,25.640857696533203,-14.524652481079102,25.903247833251953,0.0
947,-2.913330078125,-1.8232421875,-4.94384765625,7.160305500030518,-7.572519302368164,4.671755790710449,-17.62646484375,28.937515258789062,0.0,37.33165740966797,-37.51126480102539,25.664216995239258,-14.513628005981445,25.889644622802734,0.0
952,-2.913330078125,-1.823486328125,-4.946533203125,7.526717662811279,-7.633587837219238,4.809160232543945,-17.622013092041016,28.9255313873291,0.0,37.36928939819336,-37.54943084716797,25.688262939453125,-14.500781059265137,25.875696182250977,0.0
957,-2.918212890625,-1.822021484375,-4.938720703125,7.43511438369751,-7.129770755767822,4.717557430267334,-17.62096405029297,29.00229835510254,0.0,37.406463623046875,-37.585079193115234,25.711851119995117,-14.488425254821777,25.864906311035156,0.0
962,-2.911865234375,-1.8271484375,-4.94384765625,7.389312744140625,-7.2366414070129395,5.022900581359863,-17.664030075073242,28.919090270996094,0.0,37.44340896606445,-37.62126159667969,25.73696517944336,-14.476675987243652,25.852962493896484,0.0
967,-2.909423828125,-1.824462890625,-4.94775390625,7.404580116271973,-7.389312744140625,4.793893337249756,-17.633543014526367,28.88618278503418,0.0,37.480430603027344,-37.658206939697266,25.760934829711914,-14.464649200439453,25.840042114257812,0.0
972,-2.914306640625,-1.823486328125,-4.94482421875,7.251908302307129,-7.251908302307129,4.809160232543945,-17.624826431274414,28.9410400390625,0.0,37.51668930053711,-37.69446563720703,25.78498077392578,-14.453351020812988,25.82828140258789,0.0
977,-2.914794921875,-1.821533203125,-4.944091796875,7.541984558105469,-7.221374034881592,4.549618244171143,-17.60821533203125,28.95138168334961,0.0,37.55439758300781,-37.73057174682617,25.807729721069336,-14.440518379211426,25.81679344177246,0.0
982,-2.912109375,-1.82421875,-4.948486328125,7.2366414070129395,-7.053435325622559,5.099236488342285,-17.625587463378906,28.90577507019043,0.0,37.590579986572266,-37.765838623046875,25.83322525024414,-14.42938232421875,25.80582046508789,0.0
987,-2.912841796875,-1.826904296875,-4.9462890625,7.5877861976623535,-6.931297779083252,5.038167953491211,-17.654315948486328,28.917076110839844,0.0,37.628517150878906,-37.80049514770508,25.858415603637695,-14.41676139831543,25.795574188232422,0.0
992,-2.910888671875,-1.82470703125,-4.94384765625,7.267175674438477,-7.404580116271973,4.870229244232178,-17.643320083618164,28.91484832763672,0.0,37.664852142333984,-37.83751678466797,25.882766723632812,-14.405692100524902,25.782991409301758,0.0
997,-2.912841796875,-1.82666015625,-4.946044921875,7.450381755828857,-7.297709941864014,4.366412162780762,-17.652708053588867,28.91851806640625,0.0,37.70210266113281,-37.87400436401367,25.904598236083984,-14.393820762634277,25.771015167236328,0.0
1002,-2.914306640625,-1.824462890625,-4.944091796875,7.511450290679932,-7.251908302307129,4.931297779083252,-17.635498046875,28.94264793395996,0.0,37.73965835571289,-37.91026306152344,25.92925453186035,-14.381553649902344,25.759496688842773,0.0
1007,-2.9130859375,-1.822998046875,-4.939208984375,7.526717662811279,-7.129770755767822,4.778625965118408,-17.63612937927246,28.955923080444336,0.0,37.77729034423828,-37.9459114074707,25.953147888183594,-14.36925983428955,25.74872589111328,0.0
1012,-2.914306640625,-1.82763671875,-4.938720703125,7.496183395385742,-7.43511438369751,4.58015251159668,-17.677635192871094,28.960790634155273,0.0,37.81476974487305,-37.98308563232422,25.976049423217773,-14.357481956481934,25.73651123046875,0.0
1018,-2.9189453125,-1.823486328125,-4.94189453125,7.099236488342285,-7.312977313995361,4.473282337188721,-17.625303268432617,28.9923152923584,0.0,37.857364654541016,-38.02696228027344,26.00288963317871,-14.34033203125,25.71799659729004,0.0
1023,-2.913330078125,-1.82275390625,-4.939208984375,7.603053569793701,-7.3740458488464355,4.793893337249756,-17.633554458618164,28.95834732055664,0.0,37.89537811279297,-38.0638313293457,26.026859283447266,-14.327872276306152,25.706266403198242,0.0
1028,-2.909423828125,-1.82568359375,-4.946533203125,7.358778476715088,-7.206106662750244,5.038167953491211,-17.647642135620117,28.889503479003906,0.0,37.93217086791992,-38.09986114501953,26.05204963684082,-14.316780090332031,25.694887161254883,0.0
1033,-2.9130859375,-1.82275390625,-4.93603515625,7.465648651123047,-7.251908302307129,4.885496139526367,-17.641799926757812,28.97004508972168,0.0,37.96949768066406,-38.1361198425293,26.07647705078125,-14.30514907836914,25.683937072753906,0.0
1038,-2.91357421875,-1.823974609375,-4.9453125,7.297709941864014,-7.14503812789917,4.916030406951904,-17.629112243652344,28.932056427001953,0.0,38.005985260009766,-38.171844482421875,26.101057052612305,-14.294295310974121,25.673263549804688,0.0
1043,-2.917236328125,-1.8271484375,-4.949462890625,7.068702220916748,-7.099236488342285,4.778625965118408,-17.642215728759766,28.939563751220703,0.0,38.04132843017578,-38.207340240478516,26.124950408935547,-14.284713745117188,25.66290855407715,0.0
1048,-2.916748046875,-1.818359375,-4.939208984375,7.267175674438477,-7.099236488342285,4.4122138023376465,-17.588666915893555,28.99382972717285,0.0,38.07766342163086,-38.242835998535156,26.147010803222656,-14.27376651763916,25.652999877929688,0.0
1053,-2.91162109375,-1.825927734375,-4.952880859375,7.221374034881592,-7.282442569732666,4.85496187210083,-17.63088035583496,28.880054473876953,0.0,38.11376953125,-38.27924728393555,26.17128562927246,-14.26340389251709,25.641347885131836,0.0
1058,-2.91748046875,-1.82470703125,-4.947998046875,7.389312744140625,-7.267175674438477,4.992366313934326,-17.623376846313477,28.951805114746094,0.0,38.15071487426758,-38.315582275390625,26.196247100830078,-14.252184867858887,25.630359649658203,0.0
1063,-2.9140625,-1.822265625,-4.939697265625,7.297709941864014,-6.977099418640137,4.610687255859375,-17.62683868408203,28.963115692138672,0.0,38.18720245361328,-38.350467681884766,26.219301223754883,-14.241486549377441,25.620935440063477,0.0
1068,-2.91650390625,-1.8251953125,-4.944091796875,7.496183395385742,-7.389312744140625,4.870229244232178,-17.6389217376709,28.95977210998535,0.0,38.22468185424805,-38.387413024902344,26.24365234375,-14.229930877685547,25.609466552734375,0.0
1073,-2.916748046875,-1.8251953125,-4.943603515625,7.557251930236816,-7.557251930236816,5.022900581359863,-17.6397762298584,28.96391487121582,0.0,38.26246643066406,-38.42519760131836,26.268766403198242,-14.218121528625488,25.597240447998047,0.0
1078,-2.91162109375,-1.824951171875,-4.944580078125,7.496183395385742,-7.328244209289551,4.748091697692871,-17.642642974853516,28.91739845275879,0.0,38.29994583129883,-38.46183776855469,26.29250717163086,-14.206682205200195,25.58584976196289,0.0
1083,-2.9150390625,-1.823974609375,-4.944091796875,7.343511581420898,-7.633587837219238,4.503816604614258,-17.6299991607666,28.949525833129883,0.0,38.33666229248047,-38.500003814697266,26.315025329589844,-14.19594955444336,25.57322883605957,0.0
1088,-2.91748046875,-1.823486328125,-4.93798828125,7.496183395385742,-7.007633686065674,4.992366313934326,-17.637147903442383,28.99703025817871,0.0,38.374141693115234,-38.53504180908203,26.33998680114746,-14.184550285339355,25.564125061035156,0.0
1093,-2.917236328125,-1.822265625,-4.940673828125,7.450381755828857,-7.175572395324707,4.5190839767456055,-17.61976432800293,28.985322952270508,0.0,38.41139221191406,-38.570919036865234,26.36258316040039,-14.17329216003418,25.554126739501953,0.0
1099,-2.91259765625,-1.8251953125,-4.943603515625,7.6946563720703125,-7.038167953491211,4.793893337249756,-17.64585304260254,28.929357528686523,0.0,38.45756149291992,-38.6131477355957,26.391345977783203,-14.15349006652832,25.537506103515625,0.0
1104,-2.91845703125,-1.82373046875,-4.941162109375,7.511450290679932,-7.389312744140625,4.977099418640137,-17.630050659179688,28.99103355407715,0.0,38.4951171875,-38.65009307861328,26.416231155395508,-14.14222240447998,25.52667236328125,0.0
1109,-2.915771484375,-1.820556640625,-4.9423828125,7.4809160232543945,-7.3740458488464355,5.160305500030518,-17.6021671295166,28.96845817565918,0.0,38.53252029418945,-38.68696212768555,26.442031860351562,-14.130940437316895,25.515785217285156,0.0
1114,-2.914794921875,-1.823974609375,-4.94775390625,7.2366414070129395,-7.328244209289551,4.992366313934326,-17.62126922607422,28.931678771972656,0.0,38.568702697753906,-38.723602294921875,26.46699333190918,-14.121057510375977,25.504892349243164,0.0
1119,-2.91748046875,-1.828369140625,-4.94677734375,7.358778476715088,-6.885496139526367,4.6259541511535645,-17.659582138061523,28.951236724853516,0.0,38.60549545288086,-38.75802993774414,26.490123748779297,-14.110886573791504,25.496383666992188,0.0
1124,-2.916748046875,-1.82470703125,-4.944580078125,7.496183395385742,-7.190839767456055,4.473282337188721,-17.632925033569336,28.960472106933594,0.0,38.642974853515625,-38.793983459472656,26.512489318847656,-14.099870681762695,25.486454010009766,0.0
1129,-2.9140625,-1.821044921875,-4.94482421875,7.740458011627197,-7.2366414070129395,4.27480936050415,-17.603042602539062,28.942893981933594,0.0,38.681678771972656,-38.83016586303711,26.533863067626953,-14.08746337890625,25.476200103759766,0.0
1134,-2.9169921875,-1.822998046875,-4.951171875,7.328244209289551,-7.007633686065674,5.068702220916748,-17.600744247436523,28.9367618560791,0.0,38.718318939208984,-38.865203857421875,26.559206008911133,-14.07713794708252,25.46707534790039,0.0
1139,-2.918212890625,-1.822265625,-4.94091796875,7.2366414070129395,-7.190839767456055,4.900763511657715,-17.61772918701172,28.99239730834961,0.0,38.75450134277344,-38.90115737915039,26.583709716796875,-14.067431449890137,25.457483291625977,0.0
1144,-2.9140625,-1.826904296875,-4.942138671875,7.893129825592041,-7.41984748840332,4.549618244171143,-17.662845611572266,28.94515609741211,0.0,38.793968200683594,-38.938255310058594,26.60645866394043,-14.05483341217041,25.44643783569336,0.0
1149,-2.91162109375,-1.8212890625,-4.950439453125,7.541984558105469,-7.267175674438477,4.870229244232178,-17.59490203857422,28.897939682006836,0.0,38.8316764831543,-38.97459030151367,26.630809783935547,-14.043532371520996,25.435848236083984,0.0
1154,-2.915283203125,-1.826171875,-4.947021484375,7.206106662750244,-7.328244209289551,4.56488561630249,-17.642284393310547,28.935405731201172,0.0,38.867706298828125,-39.01123046875,26.653635025024414,-14.034294128417969,25.42527198791504,0.0
1159,-2.91650390625,-1.825439453125,-4.93505859375,7.343511581420898,-7.14503812789917,4.931297779083252,-17.663585662841797,28.998455047607422,0.0,38.904422760009766,-39.04695510864258,26.67829132080078,-14.024561882019043,25.416112899780273,0.0
1164,-2.9140625,-1.822021484375,-4.950439453125,7.664122104644775,-7.43511438369751,4.671755790710449,-17.597980499267578,28.917098999023438,0.0,38.942745208740234,-39.084129333496094,26.701650619506836,-14.01279067993164,25.404945373535156,0.0
1169,-2.9150390625,-1.8251953125,-4.942138671875,7.450381755828857,-7.206106662750244,4.595419883728027,-17.645917892456055,28.956018447875977,0.0,38.97999572753906,-39.12015914916992,26.724628448486328,-14.002483367919922,25.395248413085938,0.0
1174,-2.9150390625,-1.823974609375,-4.94287109375,7.541984558105469,-7.022900581359863,4.687022686004639,-17.633028030395508,28.95479965209961,0.0,39.017704010009766,-39.1552734375,26.748064041137695,-13.991666793823242,25.38648796081543,0.0
1180,-2.914306640625,-1.82421875,-4.949951171875,7.175572395324707,-7.099236488342285,4.717557430267334,-17.618745803833008,28.91774559020996,0.0,39.05358123779297,-39.19076919555664,26.771652221679688,-13.9826078414917,25.377107620239258,0.0
1185,-2.916259765625,-1.826416015625,-4.945068359375,7.358778476715088,-7.282442569732666,4.549618244171143,-17.647916793823242,28.951574325561523,0.0,39.09773254394531,-39.23446273803711,26.7989501953125,-13.965652465820312,25.359939575195312,0.0
1190,-2.9140625,-1.825927734375,-4.95068359375,7.43511438369751,-7.114503860473633,5.053435325622559,-17.632768630981445,28.90983772277832,0.0,39.13490676879883,-39.27003479003906,26.824216842651367,-13.95560073852539,25.35062026977539,0.0
1195,-2.915283203125,-1.824951171875,-4.943115234375,7.541984558105469,-7.190839767456055,5.038167953491211,-17.640920639038086,28.954219818115234,0.0,39.17261505126953,-39.30598831176758,26.849407196044922,-13.94511604309082,25.34128189086914,0.0
1200,-2.912109375,-1.823974609375,-4.9404296875,7.343511581420898,-6.946564674377441,4.702290058135986,-17.643386840820312,28.940950393676758,0.0,39.20933151245117,-39.340721130371094,26.8729190826416,-13.935676574707031,25.333091735839844,0.0
1205,-2.915771484375,-1.827880859375,-4.939697265625,7.450381755828857,-7.2366414070129395,4.27480936050415,-17.67526626586914,28.968379974365234,0.0,39.24658203125,-39.37690353393555,26.8942928314209,-13.925973892211914,25.32369041442871,0.0
1210,-2.91650390625,-1.8212890625,-4.945556640625,7.41984748840332,-7.328244209289551,4.809160232543945,-17.59987449645996,28.959667205810547,0.0,39.2836799621582,-39.413543701171875,26.918338775634766,-13.915910720825195,25.313804626464844,0.0
1215,-2.918212890625,-1.823486328125,-4.9462890625,7.740458011627197,-7.312977313995361,5.038167953491211,-17.615480422973633,28.967222213745117,0.0,39.322383880615234,-39.45010757446289,26.94352912902832,-13.904409408569336,25.304088592529297,0.0
1220,-2.9169921875,-1.823974609375,-4.939208984375,7.083969593048096,-7.282442569732666,4.656488418579102,-17.63926124572754,28.986900329589844,0.0,39.35780334472656,-39.48651885986328,26.966812133789062,-13.896390914916992,25.294706344604492,0.0
1225,-2.910888671875,-1.822021484375,-4.943359375,7.3740458488464355,-6.839694499969482,4.977099418640137,-17.62017250061035,28.921234130859375,0.0,39.39467239379883,-39.52071762084961,26.991697311401367,-13.886818885803223,25.287080764770508,0.0
1230,-2.91357421875,-1.821044921875,-4.943603515625,7.41984748840332,-7.389312744140625,4.748091697692871,-17.606782913208008,28.944103240966797,0.0,39.43177032470703,-39.55766296386719,27.015438079833984,-13.876959800720215,25.27691650390625,0.0
1235,-2.91162109375,-1.825927734375,-4.946044921875,7.603053569793701,-7.43511438369751,4.916030406951904,-17.647855758666992,28.909521102905273,0.0,39.469783782958984,-39.5948371887207,27.04001808166504,-13.866528511047363,25.26631736755371,0.0
1240,-2.9140625,-1.820556640625,-4.94091796875,7.648854732513428,-6.992366313934326,4.977099418640137,-17.608301162719727,28.960561752319336,0.0,39.50802993774414,-39.629798889160156,27.064903259277344,-13.85562801361084,25.258331298828125,0.0
1245,-2.915283203125,-1.826904296875,-4.941162109375,7.251908302307129,-7.404580116271973,4.7633585929870605,-17.663484573364258,28.959543228149414,0.0,39.544288635253906,-39.66682052612305,27.088720321655273,-13.84714412689209,25.248319625854492,0.0
1250,-2.9140625,-1.818603515625,-4.943115234375,7.358778476715088,-7.083969593048096,4.29007625579834,-17.58513069152832,28.954166412353516,0.0,39.58108139038086,-39.702239990234375,27.110170364379883,-13.837594985961914,25.23990249633789,0.0
1255,-2.917236328125,-1.825439453125,-4.946044921875,7.72519063949585,-7.312977313995361,4.58015251159668,-17.63521385192871,28.957040786743164,0.0,39.61970901489258,-39.73880386352539,27.133071899414062,-13.826627731323242,25.23040008544922,0.0
1261,-2.918212890625,-1.82568359375,-4.9521484375,7.41984748840332,-7.267175674438477,4.900763511657715,-17.620864868164062,28.938430786132812,0.0,39.65680694580078,-39.77513885498047,27.157575607299805,-13.817121505737305,25.221031188964844,0.0
1266,-2.91650390625,-1.8212890625,-4.946533203125,7.4809160232543945,-7.175572395324707,4.58015251159668,-17.597455978393555,28.955446243286133,0.0,39.701690673828125,-39.81819152832031,27.185056686401367,-13.79982852935791,25.20522689819336,0.0
1271,-2.917236328125,-1.8251953125,-4.936767578125,7.2366414070129395,-7.343511581420898,5.114503860473633,-17.656044006347656,28.997547149658203,0.0,39.73787307739258,-39.85490798950195,27.210628509521484,-13.791692733764648,25.19609832763672,0.0
1276,-2.912841796875,-1.823974609375,-4.942138671875,7.190839767456055,-7.206106662750244,4.687022686004639,-17.638065338134766,28.939664840698242,0.0,39.773826599121094,-39.89093780517578,27.23406410217285,-13.783682823181152,25.187273025512695,0.0
1281,-2.920654296875,-1.820556640625,-4.94091796875,7.603053569793701,-7.221374034881592,4.534351348876953,-17.59865379333496,29.01544189453125,0.0,39.81184005737305,-39.92704391479492,27.256736755371094,-13.773371696472168,25.178951263427734,0.0
1286,-2.917236328125,-1.82080078125,-4.943603515625,7.358778476715088,-7.4809160232543945,4.717557430267334,-17.599214553833008,28.97498321533203,0.0,39.8486328125,-39.964447021484375,27.280324935913086,-13.764322280883789,25.16908073425293,0.0
1291,-2.916748046875,-1.824951171875,-4.940185546875,7.267175674438477,-7.114503860473633,4.381679534912109,-17.64605140686035,28.979082107543945,0.0,39.88496780395508,-40.00001907348633,27.30223274230957,-13.756099700927734,25.161102294921875,0.0
1296,-2.913330078125,-1.82421875,-4.942626953125,7.541984558105469,-7.068702220916748,4.671755790710449,-17.638351440429688,28.941232681274414,0.0,39.92267608642578,-40.035362243652344,27.325592041015625,-13.746487617492676,25.153108596801758,0.0
1301,-2.914794921875,-1.825439453125,-4.947509765625,7.4809160232543945,-7.465648651123047,4.687022686004639,-17.635150909423828,28.930400848388672,0.0,39.960079193115234,-40.072689056396484,27.349027633666992,-13.73719596862793,25.143095016479492,0.0
1306,-2.919189453125,-1.826904296875,-4.943359375,7.221374034881592,-7.251908302307129,4.656488418579102,-17.652294158935547,28.982555389404297,0.0,39.996185302734375,-40.10894775390625,27.372310638427734,-13.729354858398438,25.13456153869629,0.0
1311,-2.91748046875,-1.82421875,-4.944091796875,7.648854732513428,-7.2366414070129395,4.5190839767456055,-17.628639221191406,28.96945571899414,0.0,40.03443145751953,-40.1451301574707,27.394906997680664,-13.719250679016113,25.12604522705078,0.0
1316,-2.916259765625,-1.822265625,-4.94775390625,7.343511581420898,-6.961832046508789,4.748091697692871,-17.603639602661133,28.94658851623535,0.0,40.07114791870117,-40.17993927001953,27.41864776611328,-13.710529327392578,25.118762969970703,0.0
1321,-2.914306640625,-1.8251953125,-4.945068359375,7.267175674438477,-7.679389476776123,4.748091697692871,-17.639713287353516,28.93726348876953,0.0,40.10748291015625,-40.21833801269531,27.4423885345459,-13.702479362487793,25.107877731323242,0.0
1326,-2.91748046875,-1.82421875,-4.945068359375,7.572519302368164,-7.053435325622559,4.977099418640137,-17.626216888427734,28.96523666381836,0.0,40.14534378051758,-40.253604888916016,27.467273712158203,-13.692848205566406,25.100351333618164,0.0
1331,-2.912353515625,-1.8212890625,-4.9384765625,7.740458011627197,-7.328244209289551,4.702290058135986,-17.623510360717773,28.95571517944336,0.0,40.18404769897461,-40.290245056152344,27.490785598754883,-13.682406425476074,25.091419219970703,0.0
1336,-2.914794921875,-1.8232421875,-4.950439453125,7.450381755828857,-7.541984558105469,4.85496187210083,-17.607975006103516,28.921255111694336,0.0,40.22129821777344,-40.32795333862305,27.515060424804688,-13.673343658447266,25.081218719482422,0.0
1342,-2.911376953125,-1.823486328125,-4.944580078125,7.6946563720703125,-6.992366313934326,4.977099418640137,-17.629716873168945,28.91769790649414,0.0,40.25977325439453,-40.3629150390625,27.539945602416992,-13.663260459899902,25.07377052307129,0.0
1347,-2.916748046875,-1.82275390625,-4.93505859375,7.328244209289551,-7.496183395385742,4.687022686004639,-17.638851165771484,29.004789352416992,0.0,40.303741455078125,-40.40789031982422,27.56806755065918,-13.647909164428711,25.057100296020508,0.0
1352,-2.91455078125,-1.823974609375,-4.9482421875,7.770992279052734,-7.14503812789917,4.977099418640137,-17.62041473388672,28.927539825439453,0.0,40.34259796142578,-40.4436149597168,27.592952728271484,-13.637588500976562,25.04916000366211,0.0
1357,-2.918701171875,-1.825927734375,-4.949462890625,7.541984558105469,-7.297709941864014,4.748091697692871,-17.629016876220703,28.953689575195312,0.0,40.380306243896484,-40.4801025390625,27.6166934967041,-13.628512382507324,25.040678024291992,0.0
1362,-2.917236328125,-1.82958984375,-4.943115234375,7.43511438369751,-7.358778476715088,4.778625965118408,-17.680103302001953,28.96306800842285,0.0,40.41748046875,-40.51689529418945,27.640586853027344,-13.620368957519531,25.03199577331543,0.0
1367,-2.91455078125,-1.82373046875,-4.94384765625,7.6946563720703125,-7.404580116271973,4.931297779083252,-17.629104614257812,28.9469051361084,0.0,40.455955505371094,-40.553916931152344,27.66524314880371,-13.610607147216797,25.023008346557617,0.0
1372,-2.910400390625,-1.82373046875,-4.94677734375,7.541984558105469,-7.267175674438477,4.977099418640137,-17.627901077270508,28.89969253540039,0.0,40.4936637878418,-40.59025192260742,27.690128326416016,-13.601638793945312,25.014408111572266,0.0
1377,-2.916748046875,-1.8232421875,-4.9404296875,7.175572395324707,-7.526717662811279,5.083969593048096,-17.629945755004883,28.980756759643555,0.0,40.529541015625,-40.62788391113281,27.715547561645508,-13.59454345703125,25.005130767822266,0.0
1382,-2.91259765625,-1.821533203125,-4.943359375,7.206106662750244,-7.297709941864014,4.85496187210083,-17.613245010375977,28.936246871948242,0.0,40.56557083129883,-40.664371490478516,27.739822387695312,-13.587203979492188,24.996715545654297,0.0
1387,-2.913818359375,-1.8212890625,-4.94677734375,7.282442569732666,-7.496183395385742,4.809160232543945,-17.600770950317383,28.932037353515625,0.0,40.60198211669922,-40.70185089111328,27.76386833190918,-13.579425811767578,24.987321853637695,0.0
1392,-2.912841796875,-1.826904296875,-4.939208984375,7.541984558105469,-7.297709941864014,4.946564674377441,-17.67192840576172,28.947649002075195,0.0,40.63969039916992,-40.738338470458984,27.78860092163086,-13.570892333984375,24.979066848754883,0.0
1397,-2.9140625,-1.8291015625,-4.94091796875,7.404580116271973,-7.358778476715088,4.916030406951904,-17.685806274414062,28.94692039489746,0.0,40.67671203613281,-40.77513122558594,27.813180923461914,-13.563176155090332,24.970539093017578,0.0
1402,-2.9130859375,-1.8271484375,-4.945068359375,7.343511581420898,-7.465648651123047,4.687022686004639,-17.65920639038086,28.923986434936523,0.0,40.71342849731445,-40.81245803833008,27.83661651611328,-13.555606842041016,24.96135711669922,0.0
1407,-2.9140625,-1.8291015625,-4.942626953125,7.633587837219238,-7.312977313995361,4.85496187210083,-17.681550979614258,28.939538955688477,0.0,40.75159454345703,-40.849021911621094,27.860891342163086,-13.546784400939941,24.95308494567871,0.0
1412,-2.912353515625,-1.823486328125,-4.947509765625,7.251908302307129,-7.328244209289551,5.14503812789917,-17.621015548706055,28.913185119628906,0.0,40.7878532409668,-40.88566207885742,27.886615753173828,-13.539469718933105,24.94458770751953,0.0
1417,-2.916259765625,-1.824951171875,-4.94775390625,7.526717662811279,-6.900763511657715,5.053435325622559,-17.62797737121582,28.94231414794922,0.0,40.82548522949219,-40.920166015625,27.911882400512695,-13.530868530273438,24.93845558166504,0.0
1423,-2.91259765625,-1.822998046875,-4.93505859375,7.465648651123047,-7.541984558105469,4.549618244171143,-17.64716339111328,28.969812393188477,0.0,40.86281204223633,-40.9578742980957,27.93463134765625,-13.522745132446289,24.92935562133789,0.0
1428,-2.916259765625,-1.822021484375,-4.947998046875,7.358778476715088,-7.572519302368164,5.221374034881592,-17.60082244873047,28.9459228515625,0.0,40.90696334838867,-41.00331115722656,27.965959548950195,-13.507634162902832,24.912538528442383,0.0
1433,-2.91748046875,-1.826416015625,-4.9375,7.572519302368164,-7.465648651123047,4.839694499969482,-17.664936065673828,28.994457244873047,0.0,40.94482421875,-41.0406379699707,27.990158081054688,-13.499303817749023,24.904207229614258,0.0
1438,-2.9140625,-1.820068359375,-4.93994140625,7.343511581420898,-7.4809160232543945,5.068702220916748,-17.606292724609375,28.965564727783203,0.0,40.98154067993164,-41.078041076660156,28.015501022338867,-13.491734504699707,24.895633697509766,0.0
1443,-2.91650390625,-1.825927734375,-4.93994140625,7.328244209289551,-7.099236488342285,4.702290058135986,-17.655872344970703,28.976545333862305,0.0,41.01818084716797,-41.1135368347168,28.039012908935547,-13.484620094299316,24.88907241821289,0.0
1448,-2.909912109375,-1.82568359375,-4.94091796875,7.557251930236816,-7.068702220916748,5.022900581359863,-17.660898208618164,28.917804718017578,0.0,41.055965423583984,-41.14888000488281,28.06412696838379,-13.476431846618652,24.882274627685547,0.0
1453,-2.912353515625,-1.82470703125,-4.9453125,7.5877861976623535,-7.007633686065674,4.992366313934326,-17.637537002563477,28.920724868774414,0.0,41.093902587890625,-41.18391799926758,28.089088439941406,-13.467964172363281,24.875825881958008,0.0
1458,-2.915771484375,-1.823974609375,-4.93994140625,7.526717662811279,-7.14503812789917,4.56488561630249,-17.639232635498047,28.973567962646484,0.0,41.131534576416016,-41.219642639160156,28.111913681030273,-13.45984935760498,24.869091033935547,0.0
1463,-2.913330078125,-1.826416015625,-4.943115234375,7.557251930236816,-7.114503860473633,4.56488561630249,-17.657062530517578,28.935619354248047,0.0,41.16931915283203,-41.25521469116211,28.13473892211914,-13.451743125915527,24.862268447875977,0.0
1468,-2.91357421875,-1.826171875,-4.945556640625,7.511450290679932,-7.175572395324707,4.687022686004639,-17.64842414855957,28.927501678466797,0.0,41.20687484741211,-41.29109191894531,28.158174514770508,-13.443840026855469,24.855113983154297,0.0
1473,-2.914794921875,-1.826416015625,-4.940673828125,7.648854732513428,-7.389312744140625,4.824427604675293,-17.660987854003906,28.9583683013916,0.0,41.245121002197266,-41.32803726196289,28.182296752929688,-13.43537712097168,24.847143173217773,0.0
1478,-2.91650390625,-1.823974609375,-4.943603515625,7.328244209289551,-7.083969593048096,4.732824325561523,-17.629066467285156,28.963829040527344,0.0,41.281761169433594,-41.36345672607422,28.205961227416992,-13.428321838378906,24.840763092041016,0.0
1483,-2.91259765625,-1.823974609375,-4.945068359375,7.343511581420898,-7.2366414070129395,4.793893337249756,-17.631145477294922,28.924978256225586,0.0,41.318477630615234,-41.39963912963867,28.229930877685547,-13.421235084533691,24.833377838134766,0.0
1488,-2.915771484375,-1.8251953125,-4.945068359375,7.389312744140625,-7.190839767456055,4.870229244232178,-17.637569427490234,28.9494571685791,0.0,41.35542297363281,-41.43559265136719,28.254281997680664,-13.413994789123535,24.82642364501953,0.0
1493,-2.915771484375,-1.82373046875,-4.946044921875,7.206106662750244,-7.007633686065674,4.442748069763184,-17.621868133544922,28.947574615478516,0.0,41.39145278930664,-41.47063064575195,28.2764949798584,-13.407585144042969,24.82039451599121,0.0
1498,-2.91259765625,-1.819091796875,-4.937255859375,7.43511438369751,-7.2366414070129395,5.038167953491211,-17.60623550415039,28.96653938293457,0.0,41.428627014160156,-41.506813049316406,28.301685333251953,-13.399955749511719,24.813385009765625,0.0
1503,-2.914306640625,-1.823486328125,-4.940185546875,6.931297779083252,-7.190839767456055,4.717557430267334,-17.636343002319336,28.961090087890625,0.0,41.46328353881836,-41.54276657104492,28.325273513793945,-13.395071029663086,24.806594848632812,0.0
1509,-2.912841796875,-1.820068359375,-4.939208984375,7.511450290679932,-6.961832046508789,4.488549709320068,-17.609895706176758,28.95856285095215,0.0,41.50835037231445,-41.584537506103516,28.352205276489258,-13.379759788513184,24.794118881225586,0.0
1514,-2.91064453125,-1.8232421875,-4.94970703125,7.541984558105469,-7.206106662750244,4.381679534912109,-17.615846633911133,28.889867782592773,0.0,41.546058654785156,-41.620567321777344,28.374113082885742,-13.3718843460083,24.78693199157715,0.0
1519,-2.918701171875,-1.825927734375,-4.942138671875,7.618320465087891,-7.297709941864014,4.641221523284912,-17.64719009399414,28.98533058166504,0.0,41.58414840698242,-41.65705490112305,28.397319793701172,-13.363883972167969,24.779987335205078,0.0
1524,-2.91748046875,-1.824951171875,-4.9443359375,7.43511438369751,-7.175572395324707,4.961832046508789,-17.634672164916992,28.967233657836914,0.0,41.62132263183594,-41.69293212890625,28.422128677368164,-13.356742858886719,24.7735538482666,0.0
1529,-2.914306640625,-1.823974609375,-4.943115234375,7.41984748840332,-7.282442569732666,4.717557430267334,-17.633495330810547,28.94764518737793,0.0,41.65842056274414,-41.72934341430664,28.445716857910156,-13.349699974060059,24.7664794921875,0.0
1534,-2.912841796875,-1.8271484375,-4.9462890625,7.618320465087891,-7.618320465087891,5.053435325622559,-17.65652847290039,28.91668701171875,0.0,41.696510314941406,-41.767433166503906,28.470983505249023,-13.341861724853516,24.757551193237305,0.0
1539,-2.915771484375,-1.8212890625,-4.94677734375,7.358778476715088,-7.206106662750244,4.7633585929870605,-17.597919464111328,28.94829559326172,0.0,41.73330307006836,-41.803462982177734,28.494800567626953,-13.334940910339355,24.750934600830078,0.0
1544,-2.913818359375,-1.823486328125,-4.947509765625,7.648854732513428,-7.343511581420898,4.824427604675293,-17.618877410888672,28.92538070678711,0.0,41.771549224853516,-41.840179443359375,28.518922805786133,-13.326754570007324,24.743501663208008,0.0
1549,-2.914794921875,-1.822021484375,-4.946533203125,7.267175674438477,-7.083969593048096,4.748091697692871,-17.606590270996094,28.9400577545166,0.0,41.807884216308594,-41.8755989074707,28.54266357421875,-13.320417404174805,24.73749542236328,0.0
1554,-2.912109375,-1.822021484375,-4.94140625,7.358778476715088,-7.526717662811279,4.992366313934326,-17.623239517211914,28.939844131469727,0.0,41.84467697143555,-41.913230895996094,28.567625045776367,-13.313767433166504,24.729312896728516,0.0
1559,-2.9140625,-1.8212890625,-4.9443359375,7.404580116271973,-7.053435325622559,4.793893337249756,-17.606468200683594,28.944616317749023,0.0,41.88169860839844,-41.9484977722168,28.591594696044922,-13.306801795959473,24.723552703857422,0.0
1564,-2.9150390625,-1.82373046875,-4.949951171875,7.5877861976623535,-7.557251930236816,4.870229244232178,-17.613252639770508,28.924617767333984,0.0,41.91963577270508,-41.98628234863281,28.61594581604004,-13.299003601074219,24.71517562866211,0.0
1569,-2.91259765625,-1.821044921875,-4.94482421875,7.450381755828857,-7.083969593048096,4.656488418579102,-17.605182647705078,28.930696487426758,0.0,41.956886291503906,-42.02170181274414,28.63922882080078,-13.291869163513184,24.709232330322266,0.0
1574,-2.914306640625,-1.823974609375,-4.94775390625,7.511450290679932,-7.129770755767822,4.473282337188721,-17.62198257446289,28.927614212036133,0.0,41.994441986083984,-42.057350158691406,28.66159439086914,-13.28458023071289,24.70306396484375,0.0
1579,-2.916259765625,-1.824951171875,-4.9443359375,7.114503860473633,-7.328244209289551,4.595419883728027,-17.636459350585938,28.957075119018555,0.0,42.03001403808594,-42.093990325927734,28.684572219848633,-13.279397010803223,24.69614028930664,0.0
1584,-2.912353515625,-1.82373046875,-4.946533203125,7.70992374420166,-7.267175674438477,4.870229244232178,-17.625652313232422,28.917011260986328,0.0,42.068565368652344,-42.13032531738281,28.70892333984375,-13.271201133728027,24.68927574157715,0.0
1590,-2.916748046875,-1.82666015625,-4.944580078125,7.41984748840332,-7.389312744140625,4.778625965118408,-17.65062713623047,28.95735740661621,0.0,42.11308288574219,-42.174659729003906,28.737594604492188,-13.25737476348877,24.67485809326172,0.0
1595,-2.91552734375,-1.82470703125,-4.947265625,7.343511581420898,-7.358778476715088,4.824427604675293,-17.628047943115234,28.938716888427734,0.0,42.14979934692383,-42.21145248413086,28.761716842651367,-13.25121784210205,24.667884826660156,0.0
1600,-2.91259765625,-1.8251953125,-4.951416015625,7.70992374420166,-7.068702220916748,4.748091697692871,-17.626455307006836,28.89565658569336,0.0,42.188350677490234,-42.246795654296875,28.785457611083984,-13.243256568908691,24.662084579467773,0.0
1605,-2.9130859375,-1.822021484375,-4.947998046875,7.129770755767822,-7.3740458488464355,4.946564674377441,-17.60545539855957,28.919504165649414,0.0,42.2239990234375,-42.28366470336914,28.810190200805664,-13.238067626953125,24.654956817626953,0.0
1610,-2.91552734375,-1.82568359375,-4.942626953125,7.312977313995361,-7.43511438369751,4.5190839767456055,-17.64841651916504,28.95719337463379,0.0,42.260562896728516,-42.320838928222656,28.832786560058594,-13.23228645324707,24.64781951904297,0.0
1615,-2.914794921875,-1.82177734375,-4.94189453125,7.312977313995361,-6.992366313934326,4.885496139526367,-17.615880966186523,28.960493087768555,0.0,42.29712677001953,-42.35580062866211,28.857213973999023,-13.226303100585938,24.64293670654297,0.0
1620,-2.916259765625,-1.82763671875,-4.9453125,7.496183395385742,-6.931297779083252,4.793893337249756,-17.658374786376953,28.94857406616211,0.0,42.3346061706543,-42.39045715332031,28.881183624267578,-13.219728469848633,24.63829231262207,0.0
1625,-2.919189453125,-1.8232421875,-4.940185546875,7.557251930236816,-7.14503812789917,4.839694499969482,-17.626972198486328,29.002134323120117,0.0,42.37239074707031,-42.42618179321289,28.90538215637207,-13.212662696838379,24.63297462463379,0.0
1630,-2.914306640625,-1.8203125,-4.9423828125,7.343511581420898,-7.450381755828857,4.839694499969482,-17.602094650268555,28.956645965576172,0.0,42.40910720825195,-42.46343231201172,28.929580688476562,-13.206520080566406,24.62584686279297,0.0
1635,-2.914794921875,-1.827392578125,-4.9462890625,7.4809160232543945,-7.450381755828857,4.6259541511535645,-17.655881881713867,28.932558059692383,0.0,42.446510314941406,-42.50068283081055,28.95271110534668,-13.200092315673828,24.61858558654785,0.0
1640,-2.916015625,-1.822998046875,-4.9501953125,7.648854732513428,-7.450381755828857,4.641221523284912,-17.604585647583008,28.93285369873047,0.0,42.48475646972656,-42.537933349609375,28.97591781616211,-13.192505836486816,24.611360549926758,0.0
1645,-2.912841796875,-1.825439453125,-4.944091796875,7.267175674438477,-7.404580116271973,4.595419883728027,-17.646495819091797,28.92889404296875,0.0,42.52109146118164,-42.574954986572266,28.9988956451416,-13.187140464782715,24.604372024536133,0.0
1650,-2.90869140625,-1.824462890625,-4.945556640625,7.43511438369751,-7.053435325622559,4.824427604675293,-17.640073776245117,28.889556884765625,0.0,42.558265686035156,-42.61022186279297,29.02301788330078,-13.18091869354248,24.598888397216797,0.0
1655,-2.916748046875,-1.822509765625,-4.94580078125,7.618320465087891,-7.526717662811279,4.961832046508789,-17.6099796295166,28.95870018005371,0.0,42.59635543823242,-42.64785385131836,29.047826766967773,-13.17360782623291,24.591554641723633,0.0
1660,-2.91357421875,-1.823486328125,-4.94287109375,7.450381755828857,-7.41984748840332,5.053435325622559,-17.63074493408203,28.943378448486328,0.0,42.63360595703125,-42.68495178222656,29.07309341430664,-13.167309761047363,24.58468246459961,0.0
1665,-2.91552734375,-1.8232421875,-4.94677734375,7.297709941864014,-7.41984748840332,4.824427604675293,-17.615982055664062,28.943157196044922,0.0,42.67009353637695,-42.722049713134766,29.09721565246582,-13.161696434020996,24.57784080505371,0.0
1671,-2.912109375,-1.823486328125,-4.94189453125,7.41984748840332,-7.083969593048096,4.717557430267334,-17.63531494140625,28.93539810180664,0.0,42.7146110534668,-42.76455307006836,29.125520706176758,-13.148351669311523,24.565696716308594,0.0
1676,-2.916748046875,-1.82275390625,-4.944580078125,7.190839767456055,-6.824427604675293,4.702290058135986,-17.615219116210938,28.963586807250977,0.0,42.75056457519531,-42.798675537109375,29.149032592773438,-13.143450736999512,24.5621395111084,0.0
1681,-2.91357421875,-1.823974609375,-4.9501953125,7.816793918609619,-7.282442569732666,5.038167953491211,-17.61699867248535,28.910985946655273,0.0,42.789649963378906,-42.835086822509766,29.174222946166992,-13.135472297668457,24.55595588684082,0.0
1686,-2.913330078125,-1.820068359375,-4.943115234375,7.282442569732666,-7.297709941864014,4.946564674377441,-17.599491119384766,28.945735931396484,0.0,42.8260612487793,-42.87157440185547,29.198955535888672,-13.130066871643066,24.54996109008789,0.0
1691,-2.912109375,-1.822998046875,-4.95166015625,7.099236488342285,-7.511450290679932,4.641221523284912,-17.60665512084961,28.89402961730957,0.0,42.86155700683594,-42.90913009643555,29.2221622467041,-13.125642776489258,24.542577743530273,0.0
1696,-2.91259765625,-1.82421875,-4.94189453125,7.251908302307129,-7.3740458488464355,4.992366313934326,-17.641244888305664,28.938297271728516,0.0,42.8978157043457,-42.94599914550781,29.24712371826172,-13.12071418762207,24.536216735839844,0.0
1701,-2.911865234375,-1.820068359375,-4.948486328125,7.465648651123047,-7.358778476715088,4.717557430267334,-17.58831787109375,28.910335540771484,0.0,42.935142517089844,-42.982791900634766,29.27071189880371,-13.1143798828125,24.529767990112305,0.0
1706,-2.91845703125,-1.82568359375,-4.93994140625,7.389312744140625,-7.526717662811279,4.778625965118408,-17.650793075561523,28.993194580078125,0.0,42.97208786010742,-43.020423889160156,29.294605255126953,-13.108882904052734,24.523086547851562,0.0
1711,-2.9189453125,-1.82421875,-4.944580078125,7.770992279052734,-7.4809160232543945,4.687022686004639,-17.625282287597656,28.979534149169922,0.0,43.01094436645508,-43.05782699584961,29.31804084777832,-13.101339340209961,24.516571044921875,0.0
1716,-2.9130859375,-1.821533203125,-4.94580078125,7.282442569732666,-7.328244209289551,5.099236488342285,-17.606475830078125,28.929767608642578,0.0,43.04735565185547,-43.09446716308594,29.343536376953125,-13.096129417419434,24.510501861572266,0.0
1721,-2.91552734375,-1.823974609375,-4.9423828125,7.328244209289551,-7.3740458488464355,4.748091697692871,-17.633525848388672,28.960975646972656,0.0,43.0839958190918,-43.1313362121582,29.367277145385742,-13.090900421142578,24.50444793701172,0.0
1726,-2.916259765625,-1.8232421875,-4.947021484375,7.5877861976623535,-7.206106662750244,4.839694499969482,-17.614307403564453,28.948196411132812,0.0,43.12193298339844,-43.16736602783203,29.391475677490234,-13.084272384643555,24.499168395996094,0.0
1731,-2.91064453125,-1.822998046875,-4.943603515625,7.389312744140625,-7.221374034881592,4.992366313934326,-17.6287841796875,28.916589736938477,0.0,43.158878326416016,-43.20347213745117,29.41643714904785,-13.07876205444336,24.493619918823242,0.0
1736,-2.914306640625,-1.82421875,-4.946044921875,7.282442569732666,-7.267175674438477,4.7633585929870605,-17.628437042236328,28.934602737426758,0.0,43.195289611816406,-43.23980712890625,29.44025421142578,-13.073803901672363,24.487993240356445,0.0
1741,-2.91455078125,-1.821533203125,-4.94091796875,7.603053569793701,-7.022900581359863,4.58015251159668,-17.61644744873047,28.96307373046875,0.0,43.23330307006836,-43.27492141723633,29.46315574645996,-13.067192077636719,24.48379898071289,0.0
1746,-2.912353515625,-1.822509765625,-4.943603515625,7.648854732513428,-7.389312744140625,4.610687255859375,-17.621854782104492,28.931604385375977,0.0,43.271549224853516,-43.311866760253906,29.486209869384766,-13.06042194366455,24.477584838867188,0.0
1752,-2.91357421875,-1.826904296875,-4.9404296875,7.343511581420898,-6.977099418640137,4.793893337249756,-17.667814254760742,28.948474884033203,0.0,43.315608978271484,-43.353729248046875,29.514972686767578,-13.04831314086914,24.46672248840332,0.0
1757,-2.916015625,-1.824462890625,-4.934814453125,7.70992374420166,-7.221374034881592,4.916030406951904,-17.656047821044922,28.99700927734375,0.0,43.35416030883789,-43.389835357666016,29.539552688598633,-13.041666984558105,24.461971282958984,0.0
1762,-2.91650390625,-1.82177734375,-4.939208984375,7.297709941864014,-6.977099418640137,4.900763511657715,-17.62004280090332,28.986343383789062,0.0,43.390647888183594,-43.424720764160156,29.564056396484375,-13.03685188293457,24.458377838134766,0.0
1767,-2.90869140625,-1.8271484375,-4.9423828125,7.541984558105469,-7.160305500030518,4.793893337249756,-17.672327041625977,28.898969650268555,0.0,43.4283561706543,-43.46052169799805,29.58802604675293,-13.031201362609863,24.45328712463379,0.0
1772,-2.916259765625,-1.8212890625,-4.94873046875,7.4809160232543945,-7.297709941864014,4.839694499969482,-17.592370986938477,28.943923950195312,0.0,43.46575927734375,-43.49700927734375,29.612224578857422,-13.025330543518066,24.44784164428711,0.0
1777,-2.91015625,-1.825927734375,-4.9384765625,7.343511581420898,-7.114503860473633,4.549618244171143,-17.668832778930664,28.929996490478516,0.0,43.50247573852539,-43.5325813293457,29.634973526000977,-13.0206937789917,24.4432373046875,0.0
1782,-2.913818359375,-1.82763671875,-4.940185546875,7.6946563720703125,-7.312977313995361,4.610687255859375,-17.674707412719727,28.950393676757812,0.0,43.540950775146484,-43.56914520263672,29.65802764892578,-13.014372825622559,24.437803268432617,0.0
1787,-2.91162109375,-1.825439453125,-4.946044921875,7.511450290679932,-7.389312744140625,4.824427604675293,-17.643430709838867,28.91029930114746,0.0,43.57850646972656,-43.6060905456543,29.68214988708496,-13.008776664733887,24.43174171447754,0.0
1792,-2.912109375,-1.822509765625,-4.93798828125,7.496183395385742,-7.114503860473633,4.7633585929870605,-17.63616180419922,28.953845977783203,0.0,43.61598587036133,-43.64166259765625,29.70596694946289,-13.0032320022583,24.427371978759766,0.0
1797,-2.918212890625,-1.82080078125,-4.946533203125,7.541984558105469,-7.175572395324707,4.778625965118408,-17.590532302856445,28.970443725585938,0.0,43.65369415283203,-43.67753982543945,29.729860305786133,-12.997173309326172,24.42283058166504,0.0
1802,-2.917236328125,-1.828125,-4.93994140625,7.450381755828857,-7.175572395324707,4.6259541511535645,-17.674720764160156,28.979127883911133,0.0,43.69094467163086,-43.713417053222656,29.75299072265625,-12.992175102233887,24.418367385864258,0.0
1807,-2.919921875,-1.82421875,-4.937255859375,7.328244209289551,-7.14503812789917,4.381679534912109,-17.642026901245117,29.01935386657715,0.0,43.72758483886719,-43.749141693115234,29.774898529052734,-12.987581253051758,24.414350509643555,0.0
1812,-2.91650390625,-1.8251953125,-4.9423828125,7.282442569732666,-7.206106662750244,4.809160232543945,-17.643163681030273,28.9671573638916,0.0,43.76399612426758,-43.78517150878906,29.7989444732666,-12.98324203491211,24.40968894958496,0.0
1817,-2.916259765625,-1.82470703125,-4.9462890625,7.053435325622559,-7.099236488342285,4.809160232543945,-17.6294002532959,28.94902801513672,0.0,43.79926300048828,-43.8206672668457,29.82299041748047,-12.979963302612305,24.405452728271484,0.0
1822,-2.917236328125,-1.827880859375,-4.9443359375,7.603053569793701,-7.358778476715088,4.717557430267334,-17.66158103942871,28.960527420043945,0.0,43.837276458740234,-43.857460021972656,29.84657859802246,-12.9741849899292,24.400022506713867,0.0
1827,-2.918212890625,-1.824462890625,-4.94384765625,7.053435325622559,-7.267175674438477,4.916030406951904,-17.63038444519043,28.97621726989746,0.0,43.87254333496094,-43.893795013427734,29.871158599853516,-12.970951080322266,24.39518165588379,0.0
1833,-2.915771484375,-1.825439453125,-4.943603515625,7.679389476776123,-7.404580116271973,4.6259541511535645,-17.64341926574707,28.95539665222168,0.0,43.91094207763672,-43.930816650390625,29.894289016723633,-12.96470832824707,24.389535903930664,0.0
1838,-2.91455078125,-1.82177734375,-4.94482421875,7.770992279052734,-7.43511438369751,4.7633585929870605,-17.608970642089844,28.945796966552734,0.0,43.95756912231445,-43.975425720214844,29.922868728637695,-12.950179100036621,24.376405715942383,0.0
1843,-2.91552734375,-1.82373046875,-4.941162109375,7.297709941864014,-7.297709941864014,4.961832046508789,-17.63434410095215,28.966644287109375,0.0,43.994056701660156,-44.01191329956055,29.947677612304688,-12.945979118347168,24.37156105041504,0.0
1848,-2.910888671875,-1.821533203125,-4.94189453125,7.541984558105469,-7.114503860473633,4.6259541511535645,-17.619380950927734,28.9283390045166,0.0,44.03176498413086,-44.0474853515625,29.970808029174805,-12.940479278564453,24.367387771606445,0.0
1853,-2.916259765625,-1.820556640625,-4.947265625,7.312977313995361,-7.312977313995361,4.748091697692871,-17.589357376098633,28.951414108276367,0.0,44.068328857421875,-44.084049224853516,29.994548797607422,-12.93593692779541,24.362401962280273,0.0
1858,-2.917724609375,-1.822265625,-4.9482421875,7.496183395385742,-7.007633686065674,4.549618244171143,-17.600292205810547,28.956666946411133,0.0,44.10580825805664,-44.11908721923828,30.017297744750977,-12.930578231811523,24.358991622924805,0.0
1863,-2.917236328125,-1.82275390625,-4.94140625,7.297709941864014,-7.4809160232543945,4.885496139526367,-17.622377395629883,28.98137664794922,0.0,44.142295837402344,-44.156490325927734,30.041725158691406,-12.92638111114502,24.353410720825195,0.0
1868,-2.9130859375,-1.817138671875,-4.943603515625,7.465648651123047,-7.541984558105469,4.717557430267334,-17.572053909301758,28.946250915527344,0.0,44.179622650146484,-44.19419860839844,30.0653133392334,-12.921024322509766,24.347312927246094,0.0
1873,-2.9140625,-1.82763671875,-4.942138671875,7.358778476715088,-7.068702220916748,4.931297779083252,-17.66948699951172,28.943986892700195,0.0,44.21641540527344,-44.22954177856445,30.089969635009766,-12.916887283325195,24.34358024597168,0.0
1878,-2.91455078125,-1.82470703125,-4.944580078125,7.541984558105469,-7.190839767456055,4.809160232543945,-17.636140823364258,28.942184448242188,0.0,44.25412368774414,-44.26549530029297,30.114015579223633,-12.911629676818848,24.339244842529297,0.0
1883,-2.9140625,-1.82666015625,-4.944580078125,7.648854732513428,-7.41984748840332,4.961832046508789,-17.65456199645996,28.93500328063965,0.0,44.2923698425293,-44.30259323120117,30.138824462890625,-12.905991554260254,24.333740234375,0.0
1888,-2.914794921875,-1.826904296875,-4.9521484375,7.465648651123047,-7.175572395324707,4.870229244232178,-17.63690948486328,28.90806770324707,0.0,44.32969665527344,-44.338470458984375,30.163175582885742,-12.90117073059082,24.32929229736328,0.0
1893,-2.91552734375,-1.829345703125,-4.948486328125,7.450381755828857,-7.2366414070129395,4.778625965118408,-17.667041778564453,28.92605972290039,0.0,44.366947174072266,-44.37465286254883,30.187068939208984,-12.896653175354004,24.324684143066406,0.0
1898,-2.91455078125,-1.82275390625,-4.94580078125,7.633587837219238,-7.206106662750244,5.206106662750244,-17.61540412902832,28.94002342224121,0.0,44.405113220214844,-44.410682678222656,30.213098526000977,-12.89089298248291,24.320343017578125,0.0
1903,-2.9140625,-1.826416015625,-4.945556640625,7.450381755828857,-7.221374034881592,4.885496139526367,-17.64992332458496,28.931177139282227,0.0,44.44236373901367,-44.4467887878418,30.237525939941406,-12.886306762695312,24.315885543823242,0.0
1908,-2.913330078125,-1.823486328125,-4.938720703125,7.404580116271973,-7.3740458488464355,4.717557430267334,-17.641414642333984,28.95928955078125,0.0,44.47938537597656,-44.48365783691406,30.2611141204834,-12.88191032409668,24.31087875366211,0.0
1914,-2.916015625,-1.822265625,-4.942626953125,7.5877861976623535,-7.343511581420898,4.503816604614258,-17.61670684814453,28.966711044311523,0.0,44.5173225402832,-44.5203742980957,30.283632278442383,-12.876455307006836,24.30609893798828,0.0
1919,-2.91650390625,-1.819580078125,-4.938720703125,7.526717662811279,-7.14503812789917,5.007633686065674,-17.601314544677734,28.99196434020996,0.0,44.56248474121094,-44.5632438659668,30.313678741455078,-12.863842010498047,24.295494079589844,0.0
1924,-2.91552734375,-1.828369140625,-4.942626953125,7.511450290679932,-7.068702220916748,4.992366313934326,-17.672761917114258,28.952905654907227,0.0,44.600040435791016,-44.59858703613281,30.338640213012695,-12.859341621398926,24.292160034179688,0.0
1929,-2.9140625,-1.82373046875,-4.945068359375,7.541984558105469,-7.251908302307129,4.824427604675293,-17.62679100036621,28.937564849853516,0.0,44.63774871826172,-44.63484573364258,30.362762451171875,-12.854394912719727,24.287822723388672,0.0
1934,-2.916259765625,-1.82958984375,-4.946533203125,7.114503860473633,-7.312977313995361,4.671755790710449,-17.67303466796875,28.940187454223633,0.0,44.67332077026367,-44.671409606933594,30.38612174987793,-12.851909637451172,24.28321647644043,0.0
1939,-2.9150390625,-1.827392578125,-4.9384765625,7.450381755828857,-6.85496187210083,4.534351348876953,-17.67495346069336,28.968338012695312,0.0,44.7105712890625,-44.705684661865234,30.408794403076172,-12.84777545928955,24.281099319458008,0.0
1944,-2.91162109375,-1.82275390625,-4.940673828125,7.389312744140625,-7.496183395385742,4.992366313934326,-17.632417678833008,28.937774658203125,0.0,44.74751663208008,-44.7431640625,30.43375587463379,-12.843671798706055,24.275592803955078,0.0
1949,-2.913330078125,-1.826416015625,-4.94287109375,7.633587837219238,-7.129770755767822,4.503816604614258,-17.657670974731445,28.936674118041992,0.0,44.785682678222656,-44.778812408447266,30.456274032592773,-12.838543891906738,24.27192497253418,0.0
1954,-2.9150390625,-1.822998046875,-4.943603515625,7.603053569793701,-7.221374034881592,5.114503860473633,-17.62235450744629,28.95319175720215,0.0,44.82369613647461,-44.814918518066406,30.48184585571289,-12.833351135253906,24.26793098449707,0.0
1959,-2.913330078125,-1.826171875,-4.94482421875,7.099236488342285,-7.358778476715088,4.702290058135986,-17.650602340698242,28.928630828857422,0.0,44.85919189453125,-44.85171127319336,30.50535774230957,-12.830878257751465,24.26310157775879,0.0
1964,-2.91162109375,-1.82275390625,-4.946533203125,7.954198360443115,-7.175572395324707,4.900763511657715,-17.617868423461914,28.912466049194336,0.0,44.898963928222656,-44.88758850097656,30.529861450195312,-12.823942184448242,24.259096145629883,0.0
1969,-2.90869140625,-1.826904296875,-4.9404296875,7.618320465087891,-7.206106662750244,4.870229244232178,-17.674978256225586,28.907791137695312,0.0,44.93705368041992,-44.92361831665039,30.55421257019043,-12.819099426269531,24.254924774169922,0.0
1974,-2.915283203125,-1.822021484375,-4.94091796875,7.404580116271973,-7.221374034881592,4.900763511657715,-17.61980438232422,28.968395233154297,0.0,44.97407531738281,-44.95972442626953,30.578716278076172,-12.814966201782227,24.251108169555664,0.0
1979,-2.912841796875,-1.8232421875,-4.9404296875,7.786259651184082,-7.847328186035156,4.931297779083252,-17.63566780090332,28.94822120666504,0.0,45.01300811767578,-44.99896240234375,30.60337257385254,-12.809063911437988,24.244062423706055,0.0
1984,-2.9130859375,-1.826904296875,-4.94482421875,7.3740458488464355,-7.297709941864014,4.5190839767456055,-17.65760040283203,28.925430297851562,0.0,45.04987716674805,-45.03544998168945,30.62596893310547,-12.805387496948242,24.239627838134766,0.0
1989,-2.91650390625,-1.822265625,-4.94189453125,7.633587837219238,-7.557251930236816,4.641221523284912,-17.617807388305664,28.97394371032715,0.0,45.088043212890625,-45.07323455810547,30.6491756439209,-12.800167083740234,24.234254837036133,0.0
1995,-2.91259765625,-1.8271484375,-4.9423828125,7.465648651123047,-7.251908302307129,4.748091697692871,-17.666601181030273,28.9315128326416,0.0,45.125370025634766,-45.109493255615234,30.672916412353516,-12.796137809753418,24.230138778686523,0.0
2000,-2.91552734375,-1.82275390625,-4.9462890625,7.297709941864014,-7.206106662750244,4.916030406951904,-17.61276626586914,28.946043014526367,0.0,45.16915512084961,-45.15272903442383,30.702411651611328,-12.785440444946289,24.219303131103516,0.0
2005,-2.914306640625,-1.823486328125,-4.94482421875,7.43511438369751,-7.190839767456055,4.885496139526367,-17.624826431274414,28.9410400390625,0.0,45.206329345703125,-45.188682556152344,30.726839065551758,-12.781453132629395,24.215728759765625,0.0
2010,-2.91357421875,-1.82275390625,-4.944091796875,7.312977313995361,-7.083969593048096,4.809160232543945,-17.621070861816406,28.939271926879883,0.0,45.24289321899414,-45.22410202026367,30.750885009765625,-12.77806282043457,24.21268653869629,0.0
2015,-2.914306640625,-1.8232421875,-4.9453125,7.740458011627197,-6.870229244232178,4.641221523284912,-17.621400833129883,28.939319610595703,0.0,45.28159713745117,-45.258453369140625,30.774091720581055,-12.772564888000488,24.210716247558594,0.0
2020,-2.914794921875,-1.8212890625,-4.950439453125,7.312977313995361,-7.41984748840332,4.717557430267334,-17.590274810791016,28.924358367919922,0.0,45.31816101074219,-45.29555130004883,30.797679901123047,-12.76900577545166,24.205917358398438,0.0
2025,-2.9150390625,-1.82421875,-4.940185546875,7.496183395385742,-7.465648651123047,4.534351348876953,-17.64191436767578,28.966022491455078,0.0,45.35564041137695,-45.33287811279297,30.82035255432129,-12.764901161193848,24.201196670532227,0.0
2030,-2.91357421875,-1.82373046875,-4.94970703125,7.282442569732666,-6.992366313934326,4.809160232543945,-17.615997314453125,28.91347885131836,0.0,45.392051696777344,-45.36783981323242,30.844398498535156,-12.761699676513672,24.1984920501709,0.0
2035,-2.914306640625,-1.81982421875,-4.9423828125,7.541984558105469,-6.931297779083252,4.793893337249756,-17.59766387939453,28.95742416381836,0.0,45.42975997924805,-45.402496337890625,30.86836814880371,-12.757096290588379,24.196399688720703,0.0
2040,-2.913818359375,-1.825439453125,-4.94775390625,7.190839767456055,-7.3740458488464355,4.778625965118408,-17.63597297668457,28.921218872070312,0.0,45.46571350097656,-45.43936538696289,30.892261505126953,-12.754518508911133,24.191865921020508,0.0
2045,-2.917724609375,-1.822509765625,-4.943359375,7.206106662750244,-7.450381755828857,4.992366313934326,-17.61460304260254,28.977380752563477,0.0,45.50174331665039,-45.47661590576172,30.91722297668457,-12.751728057861328,24.187355041503906,0.0
2050,-2.917236328125,-1.823974609375,-4.942138671875,7.557251930236816,-7.038167953491211,4.809160232543945,-17.631628036499023,28.97625732421875,0.0,45.539527893066406,-45.51180648803711,30.941268920898438,-12.747319221496582,24.184906005859375,0.0
2055,-2.9150390625,-1.827880859375,-4.949462890625,7.343511581420898,-7.175572395324707,5.160305500030518,-17.652063369750977,28.920120239257812,0.0,45.57624435424805,-45.54768371582031,30.967069625854492,-12.744131088256836,24.1814022064209,0.0
2060,-2.909912109375,-1.822998046875,-4.94384765625,7.43511438369751,-7.343511581420898,4.732824325561523,-17.629249572753906,28.909433364868164,0.0,45.61341857910156,-45.58440017700195,30.990734100341797,-12.74034595489502,24.177005767822266,0.0
2065,-2.9169921875,-1.824462890625,-4.944580078125,7.496183395385742,-7.221374034881592,4.870229244232178,-17.630355834960938,28.962894439697266,0.0,45.65089797973633,-45.620506286621094,31.015085220336914,-12.73628044128418,24.173601150512695,0.0
2070,-2.912109375,-1.8251953125,-4.947265625,7.022900581359863,-7.603053569793701,4.4122138023376465,-17.637470245361328,28.909486770629883,0.0,45.686012268066406,-45.65851974487305,31.037145614624023,-12.73463249206543,24.167951583862305,0.0
2075,-2.914794921875,-1.82373046875,-4.94921875,7.5877861976623535,-7.404580116271973,4.839694499969482,-17.61542510986328,28.92574691772461,0.0,45.72394943237305,-45.69554138183594,31.061344146728516,-12.730031967163086,24.163427352905273,0.0
2081,-2.9130859375,-1.822265625,-4.93798828125,7.4809160232543945,-7.4809160232543945,4.977099418640137,-17.63251304626465,28.962373733520508,0.0,45.76883316040039,-45.74042510986328,31.09120750427246,-12.718765258789062,24.151456832885742,0.0
2086,-2.917236328125,-1.8232421875,-4.95068359375,7.72519063949585,-7.557251930236816,4.717557430267334,-17.60380744934082,28.94051170349121,0.0,45.80746078491211,-45.7782096862793,31.114795684814453,-12.713587760925293,24.146461486816406,0.0
2091,-2.917236328125,-1.819580078125,-4.9423828125,7.312977313995361,-7.14503812789917,4.916030406951904,-17.591167449951172,28.982208251953125,0.0,45.844024658203125,-45.813934326171875,31.139375686645508,-12.710396766662598,24.143821716308594,0.0
2096,-2.914794921875,-1.82275390625,-4.9375,7.526717662811279,-7.511450290679932,4.3053436279296875,-17.635652542114258,28.977947235107422,0.0,45.881656646728516,-45.85149002075195,31.16090202331543,-12.70645809173584,24.139339447021484,0.0
2101,-2.918701171875,-1.8271484375,-4.941162109375,7.297709941864014,-7.3740458488464355,4.961832046508789,-17.660682678222656,28.98760414123535,0.0,45.91814422607422,-45.88835906982422,31.185710906982422,-12.70384407043457,24.1356258392334,0.0
2106,-2.9140625,-1.82275390625,-4.937744140625,7.43511438369751,-7.190839767456055,4.977099418640137,-17.636119842529297,28.970787048339844,0.0,45.955318450927734,-45.924312591552734,31.210596084594727,-12.700389862060547,24.13272476196289,0.0
2111,-2.914306640625,-1.824462890625,-4.947509765625,7.511450290679932,-7.5877861976623535,4.916030406951904,-17.62701416015625,28.92789077758789,0.0,45.99287414550781,-45.962249755859375,31.23517608642578,-12.696507453918457,24.12757110595703,0.0
2116,-2.916259765625,-1.827880859375,-4.94140625,7.603053569793701,-7.251908302307129,4.809160232543945,-17.670299530029297,28.965057373046875,0.0,46.030887603759766,-45.99850845336914,31.25922203063965,-12.69248104095459,24.124364852905273,0.0
2121,-2.916259765625,-1.824951171875,-4.953125,7.511450290679932,-7.465648651123047,4.427480697631836,-17.61466407775879,28.919145584106445,0.0,46.068443298339844,-46.03583526611328,31.28135871887207,-12.688549995422363,24.11979866027832,0.0
2126,-2.91455078125,-1.82177734375,-4.94580078125,7.496183395385742,-7.190839767456055,4.885496139526367,-17.606550216674805,28.941577911376953,0.0,46.10592269897461,-46.0717887878418,31.3057861328125,-12.68465805053711,24.116771697998047,0.0
2131,-2.9111328125,-1.825439453125,-4.94287109375,7.603053569793701,-7.022900581359863,4.687022686004639,-17.652034759521484,28.91992950439453,0.0,46.14393615722656,-46.106903076171875,31.329221725463867,-12.680561065673828,24.114442825317383,0.0
2136,-2.917236328125,-1.818603515625,-4.948486328125,7.328244209289551,-6.839694499969482,4.85496187210083,-17.56720733642578,28.95737075805664,0.0,46.18057632446289,-46.1411018371582,31.353496551513672,-12.677273750305176,24.113285064697266,0.0
2141,-2.916748046875,-1.823486328125,-4.943115234375,7.221374034881592,-6.992366313934326,4.916030406951904,-17.6254940032959,28.96875,0.0,46.21668243408203,-46.176063537597656,31.378076553344727,-12.674924850463867,24.111446380615234,0.0
2146,-2.915283203125,-1.819091796875,-4.947509765625,7.496183395385742,-7.038167953491211,5.206106662750244,-17.57689666748047,28.944561004638672,0.0,46.2541618347168,-46.21125411987305,31.40410614013672,-12.670888900756836,24.109220504760742,0.0
2151,-2.914306640625,-1.820068359375,-4.9462890625,7.328244209289551,-7.4809160232543945,4.503816604614258,-17.590200424194336,28.94015121459961,0.0,46.290802001953125,-46.2486572265625,31.426624298095703,-12.667797088623047,24.10477066040039,0.0
2156,-2.915771484375,-1.822265625,-4.9443359375,7.206106662750244,-7.175572395324707,4.671755790710449,-17.612825393676758,28.957290649414062,0.0,46.32683181762695,-46.2845344543457,31.449983596801758,-12.66547679901123,24.10197639465332,0.0
2162,-2.916015625,-1.824462890625,-4.944091796875,7.4809160232543945,-7.389312744140625,4.687022686004639,-17.63299560546875,28.956876754760742,0.0,46.3717155456543,-46.3288688659668,31.478105545043945,-12.65460205078125,24.090883255004883,0.0
2167,-2.9169921875,-1.82177734375,-4.94580078125,7.969465732574463,-7.648854732513428,4.687022686004639,-17.602983474731445,28.961896896362305,0.0,46.411563873291016,-46.36711502075195,31.501541137695312,-12.648592948913574,24.085941314697266,0.0
2172,-2.913330078125,-1.823486328125,-4.944580078125,7.160305500030518,-7.328244209289551,4.717557430267334,-17.626859664916992,28.933963775634766,0.0,46.447364807128906,-46.40375518798828,31.525129318237305,-12.646795272827148,24.082426071166992,0.0
2177,-2.913818359375,-1.822998046875,-4.939453125,7.541984558105469,-7.206106662750244,4.824427604675293,-17.634449005126953,28.960969924926758,0.0,46.48507308959961,-46.43978500366211,31.549251556396484,-12.643156051635742,24.079715728759766,0.0
2182,-2.911865234375,-1.821044921875,-4.940185546875,7.5877861976623535,-7.43511438369751,4.610687255859375,-17.617765426635742,28.944644927978516,0.0,46.52301025390625,-46.476959228515625,31.57230567932129,-12.639192581176758,24.07576560974121,0.0
2187,-2.914794921875,-1.82861328125,-4.944580078125,7.465648651123047,-7.068702220916748,4.916030406951904,-17.671192169189453,28.937986373901367,0.0,46.56033706665039,-46.51230239868164,31.596885681152344,-12.636216163635254,24.073610305786133,0.0
2192,-2.918701171875,-1.82373046875,-4.9453125,7.541984558105469,-6.916030406951904,4.641221523284912,-17.619400024414062,28.975114822387695,0.0,46.598045349121094,-46.54688262939453,31.620092391967773,-12.632519721984863,24.07246971130371,0.0
2197,-2.9111328125,-1.821533203125,-4.93798828125,7.496183395385742,-7.450381755828857,4.916030406951904,-17.628726959228516,28.947263717651367,0.0,46.63552474975586,-46.58413314819336,31.644672393798828,-12.629130363464355,24.068485260009766,0.0
2202,-2.9150390625,-1.822021484375,-4.94384765625,7.633587837219238,-7.328244209289551,4.870229244232178,-17.612892150878906,28.953693389892578,0.0,46.67369079589844,-46.62077331542969,31.669023513793945,-12.62496566772461,24.065168380737305,0.0
2207,-2.914306640625,-1.822265625,-4.9453125,7.72519063949585,-7.4809160232543945,4.6259541511535645,-17.612545013427734,28.940874099731445,0.0,46.712318420410156,-46.65817642211914,31.692153930664062,-12.62036418914795,24.06102180480957,0.0
2212,-2.913818359375,-1.82470703125,-4.948486328125,7.740458011627197,-7.358778476715088,4.58015251159668,-17.627517700195312,28.91922378540039,0.0,46.75102233886719,-46.694969177246094,31.715055465698242,-12.615811347961426,24.057353973388672,0.0
2217,-2.91650390625,-1.822998046875,-4.949951171875,7.282442569732666,-7.465648651123047,4.992366313934326,-17.60447883605957,28.937969207763672,0.0,46.78743362426758,-46.732295989990234,31.74001693725586,-12.613398551940918,24.053300857543945,0.0
2222,-2.909423828125,-1.826416015625,-4.94873046875,7.053435325622559,-7.404580116271973,5.083969593048096,-17.648820877075195,28.87886619567871,0.0,46.82270050048828,-46.769317626953125,31.76543617248535,-12.612431526184082,24.049169540405273,0.0
2227,-2.9169921875,-1.820556640625,-4.947998046875,7.389312744140625,-7.175572395324707,4.900763511657715,-17.586475372314453,28.954345703125,0.0,46.85964584350586,-46.80519485473633,31.789939880371094,-12.609373092651367,24.046707153320312,0.0
2232,-2.911865234375,-1.825439453125,-4.943603515625,7.450381755828857,-7.343511581420898,4.961832046508789,-17.649139404296875,28.922868728637695,0.0,46.89689636230469,-46.84191131591797,31.814748764038086,-12.60644817352295,24.04320526123047,0.0
2237,-2.916259765625,-1.822998046875,-4.939453125,7.664122104644775,-7.160305500030518,4.473282337188721,-17.630870819091797,28.981306076049805,0.0,46.935218811035156,-46.87771224975586,31.837114334106445,-12.602350234985352,24.041027069091797,0.0
2243,-2.91455078125,-1.8271484375,-4.943603515625,7.43511438369751,-7.206106662750244,4.366412162780762,-17.660701751708984,28.942506790161133,0.0,46.979827880859375,-46.92094802856445,31.863313674926758,-12.592324256896973,24.03130340576172,0.0
2248,-2.9169921875,-1.82470703125,-4.9453125,7.43511438369751,-7.251908302307129,4.778625965118408,-17.63075065612793,28.959341049194336,0.0,47.01700210571289,-46.95720672607422,31.88720703125,-12.589539527893066,24.0286808013916,0.0
2253,-2.914794921875,-1.822509765625,-4.947021484375,7.526717662811279,-7.190839767456055,4.473282337188721,-17.60980796813965,28.937171936035156,0.0,47.05463409423828,-46.993160247802734,31.90957260131836,-12.586167335510254,24.026220321655273,0.0
2258,-2.91748046875,-1.820068359375,-4.93701171875,7.4809160232543945,-7.43511438369751,4.6259541511535645,-17.608552932739258,29.00672149658203,0.0,47.092037200927734,-47.03033447265625,31.932703018188477,-12.583027839660645,24.023025512695312,0.0
2263,-2.917724609375,-1.824951171875,-4.945068359375,7.618320465087891,-7.251908302307129,4.885496139526367,-17.632497787475586,28.966100692749023,0.0,47.130126953125,-47.066593170166016,31.957130432128906,-12.579380989074707,24.020479202270508,0.0
2268,-2.91455078125,-1.82373046875,-4.9423828125,7.465648651123047,-7.4809160232543945,4.6259541511535645,-17.632741928100586,28.95323371887207,0.0,47.16745376586914,-47.10399627685547,31.980260848999023,-12.576510429382324,24.01671600341797,0.0
2273,-2.914306640625,-1.822265625,-4.942138671875,7.404580116271973,-7.541984558105469,4.885496139526367,-17.620418548583984,28.95458984375,0.0,47.20447540283203,-47.14170455932617,32.00468826293945,-12.573870658874512,24.012676239013672,0.0
2278,-2.914306640625,-1.823974609375,-4.9521484375,7.267175674438477,-7.328244209289551,4.839694499969482,-17.611087799072266,28.908658981323242,0.0,47.24081039428711,-47.1783447265625,32.02888488769531,-12.571859359741211,24.0094051361084,0.0
2283,-2.913330078125,-1.820556640625,-4.94091796875,7.328244209289551,-6.717557430267334,5.282442569732666,-17.609373092651367,28.95446014404297,0.0,47.27745056152344,-47.21193313598633,32.0552978515625,-12.569539070129395,24.009490966796875,0.0
2288,-2.914794921875,-1.82470703125,-4.9443359375,7.343511581420898,-7.175572395324707,4.58015251159668,-17.636390686035156,28.945270538330078,0.0,47.31416702270508,-47.24781036376953,32.07819747924805,-12.567333221435547,24.007232666015625,0.0
2293,-2.916015625,-1.825439453125,-4.94384765625,7.3740458488464355,-7.3740458488464355,4.717557430267334,-17.6424560546875,28.95637321472168,0.0,47.351036071777344,-47.2846794128418,32.101783752441406,-12.565023422241211,24.004070281982422,0.0
2298,-2.9140625,-1.822998046875,-4.94384765625,7.4809160232543945,-7.068702220916748,4.809160232543945,-17.623178482055664,28.94400405883789,0.0,47.3884391784668,-47.32002258300781,32.12582778930664,-12.562060356140137,24.002355575561523,0.0
2303,-2.912841796875,-1.823974609375,-4.94287109375,7.465648651123047,-7.70992374420166,4.58015251159668,-17.636245727539062,28.936500549316406,0.0,47.42576599121094,-47.35857391357422,32.14872741699219,-12.559273719787598,23.99740982055664,0.0
2308,-2.91552734375,-1.825439453125,-4.9443359375,7.4809160232543945,-7.160305500030518,4.595419883728027,-17.641958236694336,28.9502010345459,0.0,47.46316909790039,-47.39437484741211,32.17170333862305,-12.5564603805542,23.995311737060547,0.0
2313,-2.913818359375,-1.823486328125,-4.947021484375,7.43511438369751,-7.343511581420898,4.961832046508789,-17.620088577270508,28.927488327026367,0.0,47.500343322753906,-47.43109130859375,32.19651412963867,-12.553738594055176,23.992156982421875,0.0
2318,-2.913330078125,-1.820556640625,-4.94384765625,7.221374034881592,-7.41984748840332,4.610687255859375,-17.60210418701172,28.941791534423828,0.0,47.53644943237305,-47.46818923950195,32.219566345214844,-12.55196762084961,23.988733291625977,0.0
2324,-2.916259765625,-1.82080078125,-4.9453125,7.358778476715088,-7.43511438369751,4.916030406951904,-17.59640884399414,28.9594669342041,0.0,47.58060073852539,-47.51279830932617,32.249061584472656,-12.542269706726074,23.97808074951172,0.0
2329,-2.919189453125,-1.821533203125,-4.94970703125,7.465648651123047,-7.404580116271973,4.488549709320068,-17.587892532348633,28.963687896728516,0.0,47.61792755126953,-47.54981994628906,32.27150344848633,-12.539349555969238,23.97505760192871,0.0
2334,-2.914306640625,-1.82373046875,-4.9443359375,7.5877861976623535,-7.099236488342285,4.885496139526367,-17.628252029418945,28.942760467529297,0.0,47.65586471557617,-47.5853157043457,32.29593276977539,-12.536107063293457,23.973421096801758,0.0
2339,-2.9140625,-1.817138671875,-4.939697265625,7.267175674438477,-7.190839767456055,4.458015441894531,-17.580303192138672,28.971288681030273,0.0,47.69219970703125,-47.62126922607422,32.31822204589844,-12.53414535522461,23.971527099609375,0.0
2344,-2.916015625,-1.820068359375,-4.9423828125,7.190839767456055,-6.961832046508789,4.778625965118408,-17.597381591796875,28.971267700195312,0.0,47.728153228759766,-47.65607833862305,32.34211349487305,-12.532683372497559,23.970773696899414,0.0
2349,-2.91357421875,-1.827392578125,-4.942626953125,7.328244209289551,-7.358778476715088,4.702290058135986,-17.66677474975586,28.938201904296875,0.0,47.764793395996094,-47.69287109375,32.365623474121094,-12.531010627746582,23.96782112121582,0.0
2354,-2.9130859375,-1.825439453125,-4.9453125,7.541984558105469,-7.267175674438477,4.534351348876953,-17.64310646057129,28.925657272338867,0.0,47.8025016784668,-47.72920608520508,32.3882942199707,-12.528119087219238,23.965251922607422,0.0
2359,-2.912109375,-1.824951171875,-4.946044921875,7.3740458488464355,-6.961832046508789,4.916030406951904,-17.638288497924805,28.915142059326172,0.0,47.83937072753906,-47.764015197753906,32.41287612915039,-12.526041030883789,23.96413803100586,0.0
2364,-2.9189453125,-1.82470703125,-4.948974609375,7.450381755828857,-7.755725383758545,4.717557430267334,-17.61881446838379,28.95977020263672,0.0,47.87662124633789,-47.80279541015625,32.43646240234375,-12.523458480834961,23.959383010864258,0.0
2369,-2.916748046875,-1.822998046875,-4.939208984375,7.450381755828857,-7.190839767456055,4.85496187210083,-17.630760192871094,28.986427307128906,0.0,47.91387176513672,-47.838748931884766,32.46073532104492,-12.520966529846191,23.957637786865234,0.0
2374,-2.915283203125,-1.8212890625,-4.950927734375,7.41984748840332,-7.251908302307129,4.809160232543945,-17.588356018066406,28.926313400268555,0.0,47.95096969604492,-47.87500762939453,32.484779357910156,-12.518348693847656,23.95518684387207,0.0
2379,-2.912841796875,-1.818603515625,-4.93798828125,7.4809160232543945,-7.190839767456055,4.549618244171143,-17.599624633789062,28.9661808013916,0.0,47.988372802734375,-47.91096115112305,32.50752639770508,-12.51551342010498,23.953317642211914,0.0
2384,-2.91650390625,-1.81982421875,-4.944580078125,7.541984558105469,-7.068702220916748,4.748091697692871,-17.58901023864746,28.966218948364258,0.0,48.02608108520508,-47.94630432128906,32.53126525878906,-12.512314796447754,23.95206069946289,0.0
2389,-2.9140625,-1.822021484375,-4.943115234375,7.312977313995361,-7.312977313995361,4.931297779083252,-17.616138458251953,28.9487247467041,0.0,48.062644958496094,-47.98286819458008,32.55592346191406,-12.510451316833496,23.949472427368164,0.0
2394,-2.91357421875,-1.82080078125,-4.9453125,7.14503812789917,-7.648854732513428,5.083969593048096,-17.600330352783203,28.93710708618164,0.0,48.09836959838867,-48.021114349365234,32.58134460449219,-12.509319305419922,23.945148468017578,0.0
2399,-2.917236328125,-1.82373046875,-4.9501953125,7.328244209289551,-7.343511581420898,4.732824325561523,-17.609439849853516,28.941843032836914,0.0,48.135009765625,-48.057830810546875,32.60500717163086,-12.507340431213379,23.942394256591797,0.0
2405,-2.913330078125,-1.825927734375,-4.941650390625,7.557251930236816,-7.297709941864014,4.717557430267334,-17.656278610229492,28.942726135253906,0.0,48.180355072021484,-48.10161590576172,32.6333122253418,-12.497139930725098,23.932735443115234,0.0
2410,-2.916015625,-1.822509765625,-4.94287109375,7.572519302368164,-7.160305500030518,5.160305500030518,-17.618314743041992,28.965267181396484,0.0,48.21821594238281,-48.13741683959961,32.659114837646484,-12.494174003601074,23.931217193603516,0.0
2415,-2.912109375,-1.82666015625,-4.93994140625,7.511450290679932,-7.43511438369751,4.534351348876953,-17.668964385986328,28.93877410888672,0.0,48.25577163696289,-48.174591064453125,32.681785583496094,-12.491865158081055,23.92815589904785,0.0
2420,-2.916015625,-1.821044921875,-4.9443359375,7.832061290740967,-7.41984748840332,4.885496139526367,-17.601398468017578,28.961267471313477,0.0,48.2949333190918,-48.21168899536133,32.706214904785156,-12.48751449584961,23.925334930419922,0.0
2425,-2.916748046875,-1.81982421875,-4.94482421875,7.572519302368164,-7.312977313995361,4.809160232543945,-17.588048934936523,28.967195510864258,0.0,48.332794189453125,-48.248252868652344,32.73025894165039,-12.484384536743164,23.923095703125,0.0
2430,-2.91357421875,-1.823974609375,-4.94921875,7.404580116271973,-7.41984748840332,4.916030406951904,-17.61941909790039,28.915197372436523,0.0,48.369815826416016,-48.28535079956055,32.75484085083008,-12.482314109802246,23.91998291015625,0.0
2435,-2.916259765625,-1.822021484375,-4.943603515625,7.832061290740967,-6.992366313934326,4.717557430267334,-17.611713409423828,28.96491050720215,0.0,48.40897750854492,-48.3203125,32.77842712402344,-12.478074073791504,23.919342041015625,0.0
2440,-2.9140625,-1.818359375,-4.939453125,7.358778476715088,-7.221374034881592,4.641221523284912,-17.591989517211914,28.970401763916016,0.0,48.445770263671875,-48.35641860961914,32.801631927490234,-12.476072311401367,23.917598724365234,0.0
2445,-2.91357421875,-1.822265625,-4.943115234375,7.221374034881592,-7.633587837219238,4.946564674377441,-17.61906623840332,28.94426918029785,0.0,48.481876373291016,-48.39458465576172,32.82636642456055,-12.474942207336426,23.91363525390625,0.0
2450,-2.9189453125,-1.825927734375,-4.938720703125,7.70992374420166,-7.297709941864014,4.656488418579102,-17.655323028564453,29.00214958190918,0.0,48.52042770385742,-48.43107223510742,32.849647521972656,-12.471631050109863,23.9117488861084,0.0
2455,-2.913818359375,-1.826416015625,-4.9404296875,7.358778476715088,-7.43511438369751,4.778625965118408,-17.663026809692383,28.9512882232666,0.0,48.557220458984375,-48.46824645996094,32.873538970947266,-12.47012996673584,23.908843994140625,0.0
2460,-2.91650390625,-1.82763671875,-4.945556640625,7.251908302307129,-7.083969593048096,4.748091697692871,-17.65740966796875,28.94955062866211,0.0,48.59347915649414,-48.503665924072266,32.89727783203125,-12.469124794006348,23.907684326171875,0.0
2465,-2.912841796875,-1.823974609375,-4.941650390625,7.465648651123047,-7.43511438369751,4.946564674377441,-17.639278411865234,28.941774368286133,0.0,48.63080596923828,-48.54084014892578,32.92201232910156,-12.466935157775879,23.904727935791016,0.0
