Time,Acc_low_X,Acc_low_Y,Acc_low_Z,Gyro_low_X,Gyro_low_Y,Gyro_low_Z,Acc_X,Acc_Y,Acc_Z,Gyro_X,Gyro_Y,Gyro_Z,Euler_X,Euler_Y,Euler_Z
0,-2.956787109375,-2.84814453125,-5.94140625,7.557251930236816,-7.496183395385742,4.656488418579102,-23.227306365966797,24.16862678527832,0.0,42.98564910888672,-42.6382942199707,26.486106872558594,-22.095788955688477,23.02696418762207,0.0
5,-2.952392578125,-2.8525390625,-5.942138671875,7.404580116271973,-7.389312744140625,4.748091697692871,-23.263412475585938,24.128501892089844,0.0,43.02267074584961,-42.67523956298828,26.50984764099121,-22.65591049194336,23.554365158081055,0.0
10,-2.95849609375,-2.84814453125,-5.946044921875,7.312977313995361,-7.770992279052734,4.931297779083252,-23.211938858032227,24.167409896850586,0.0,43.059234619140625,-42.71409606933594,26.534503936767578,-22.815752029418945,23.73157501220703,0.0
15,-2.95556640625,-2.849365234375,-5.946533203125,7.053435325622559,-7.541984558105469,4.5190839767456055,-23.22354507446289,24.143075942993164,0.0,43.09450149536133,-42.75180435180664,26.557100296020508,-22.89078712463379,23.80569839477539,0.0
20,-2.95361328125,-2.8525390625,-5.9453125,7.511450290679932,-7.511450290679932,5.099236488342285,-23.252809524536133,24.128061294555664,0.0,43.132057189941406,-42.78936004638672,26.582595825195312,-22.932889938354492,23.839895248413086,0.0
25,-2.958984375,-2.84716796875,-5.936279296875,7.251908302307129,-6.839694499969482,4.946564674377441,-23.231483459472656,24.200937271118164,0.0,43.16831588745117,-42.82355880737305,26.607328414916992,-22.952301025390625,23.87140655517578,0.0
30,-2.953125,-2.849853515625,-5.94140625,7.755725383758545,-7.2366414070129395,4.656488418579102,-23.244869232177734,24.13971519470215,0.0,43.207096099853516,-42.8597412109375,26.630611419677734,-22.96076774597168,23.87864112854004,0.0
35,-2.956298828125,-2.8486328125,-5.94873046875,7.14503812789917,-7.2366414070129395,4.977099418640137,-23.211040496826172,24.142974853515625,0.0,43.242820739746094,-42.89592361450195,26.65549659729004,-22.960742950439453,23.87997055053711,0.0
40,-2.952880859375,-2.848876953125,-5.946533203125,7.465648651123047,-7.206106662750244,4.549618244171143,-23.223722457885742,24.124324798583984,0.0,43.280147552490234,-42.93195343017578,26.678245544433594,-22.956750869750977,23.87506675720215,0.0
45,-2.958251953125,-2.84619140625,-5.94384765625,7.3740458488464355,-7.41984748840332,4.748091697692871,-23.204191207885742,24.17481803894043,0.0,43.3170166015625,-42.969051361083984,26.70198631286621,-22.94829750061035,23.87163543701172,0.0
50,-2.955810546875,-2.846923828125,-5.948486328125,7.282442569732666,-7.557251930236816,4.56488561630249,-23.199951171875,24.142549514770508,0.0,43.35342788696289,-43.0068359375,26.724811553955078,-22.938074111938477,23.86191177368164,0.0
55,-2.960205078125,-2.84521484375,-5.947509765625,7.450381755828857,-6.900763511657715,4.671755790710449,-23.18411636352539,24.179588317871094,0.0,43.39067840576172,-43.04133987426758,26.748170852661133,-22.924440383911133,23.856769561767578,0.0
61,-2.959716796875,-2.848388671875,-5.944091796875,7.603053569793701,-7.3740458488464355,4.885496139526367,-23.217483520507812,24.181617736816406,0.0,43.42869186401367,-43.078208923339844,26.772598266601562,-22.91191291809082,23.847747802734375,0.0
66,-2.955078125,-2.8466796875,-5.943115234375,7.465648651123047,-7.022900581359863,4.900763511657715,-23.21422004699707,24.153308868408203,0.0,43.47348403930664,-43.12034606933594,26.802001953125,-22.891950607299805,23.830486297607422,0.0
71,-2.954345703125,-2.845458984375,-5.94140625,7.14503812789917,-7.5877861976623535,4.824427604675293,-23.211124420166016,24.154722213745117,0.0,43.50920867919922,-43.15828323364258,26.82612419128418,-22.879934310913086,23.816741943359375,0.0
76,-2.956787109375,-2.84716796875,-5.939453125,7.328244209289551,-7.14503812789917,5.053435325622559,-23.225656509399414,24.17572021484375,0.0,43.54584884643555,-43.194007873535156,26.851390838623047,-22.867250442504883,23.805749893188477,0.0
81,-2.9580078125,-2.848876953125,-5.942138671875,7.206106662750244,-7.175572395324707,5.038167953491211,-23.228891372680664,24.174287796020508,0.0,43.581878662109375,-43.22988510131836,26.8765811920166,-22.854684829711914,23.79373550415039,0.0
86,-2.955078125,-2.8486328125,-5.9443359375,7.389312744140625,-7.618320465087891,4.809160232543945,-23.225040435791016,24.146995544433594,0.0,43.61882400512695,-43.267974853515625,26.90062713623047,-22.8404483795166,23.777463912963867,0.0
91,-2.955078125,-2.8486328125,-5.94775390625,7.007633686065674,-7.007633686065674,4.656488418579102,-23.215471267700195,24.136999130249023,0.0,43.65386199951172,-43.30301284790039,26.92391014099121,-22.827083587646484,23.763280868530273,0.0
96,-2.957275390625,-2.8486328125,-5.9462890625,7.404580116271973,-7.282442569732666,4.717557430267334,-23.21651268005371,24.157180786132812,0.0,43.69088363647461,-43.33942413330078,26.947498321533203,-22.811485290527344,23.74848747253418,0.0
101,-2.956787109375,-2.85498046875,-5.946044921875,7.4809160232543945,-7.328244209289551,4.702290058135986,-23.264116287231445,24.145458221435547,0.0,43.72828674316406,-43.37606430053711,26.971010208129883,-22.79754066467285,23.73260498046875,0.0
106,-2.958251953125,-2.848876953125,-5.941650390625,7.41984748840332,-6.992366313934326,4.702290058135986,-23.22991943359375,24.1774845123291,0.0,43.765384674072266,-43.41102600097656,26.994522094726562,-22.781909942626953,23.719585418701172,0.0
111,-2.95849609375,-2.850830078125,-5.94287109375,7.175572395324707,-7.14503812789917,4.870229244232178,-23.240392684936523,24.17293357849121,0.0,43.80126190185547,-43.44675064086914,27.01887321472168,-22.767671585083008,23.70526695251465,0.0
116,-2.955078125,-2.85009765625,-5.943115234375,7.206106662750244,-7.2366414070129395,5.267175674438477,-23.2391357421875,24.148513793945312,0.0,43.8372917175293,-43.482933044433594,27.045209884643555,-22.752944946289062,23.689208984375,0.0
121,-2.9560546875,-2.8505859375,-5.943603515625,7.557251930236816,-7.511450290679932,4.931297779083252,-23.239965438842773,24.153467178344727,0.0,43.87507629394531,-43.52048873901367,27.069866180419922,-22.7363224029541,23.671886444091797,0.0
126,-2.9580078125,-2.84765625,-5.94140625,7.343511581420898,-7.206106662750244,4.809160232543945,-23.222043991088867,24.17814826965332,0.0,43.91179275512695,-43.5565185546875,27.09391212463379,-22.719877243041992,23.656898498535156,0.0
131,-2.951171875,-2.85107421875,-5.949462890625,7.541984558105469,-7.114503860473633,4.732824325561523,-23.233901977539062,24.100322723388672,0.0,43.949501037597656,-43.59209060668945,27.117576599121094,-22.70279884338379,23.639238357543945,0.0
136,-2.952880859375,-2.845947265625,-5.94482421875,7.2366414070129395,-7.221374034881592,4.7633585929870605,-23.2071533203125,24.133424758911133,0.0,43.98568344116211,-43.628196716308594,27.141393661499023,-22.68612289428711,23.622270584106445,0.0
142,-2.955810546875,-2.847412109375,-5.944091796875,7.41984748840332,-7.2366414070129395,4.595419883728027,-23.21580696105957,24.15472412109375,0.0,44.02278137207031,-43.66437911987305,27.164371490478516,-22.66878890991211,23.605918884277344,0.0
147,-2.95556640625,-2.850341796875,-5.94677734375,7.114503860473633,-7.526717662811279,5.114503860473633,-23.229976654052734,24.140993118286133,0.0,44.065467834472656,-43.70954132080078,27.195058822631836,-22.646488189697266,23.580345153808594,0.0
152,-2.95654296875,-2.84765625,-5.945556640625,7.465648651123047,-7.4809160232543945,5.14503812789917,-23.212465286254883,24.155393600463867,0.0,44.1027946472168,-43.746944427490234,27.220783233642578,-22.62888526916504,23.562965393066406,0.0
157,-2.95556640625,-2.846435546875,-5.941650390625,7.160305500030518,-7.251908302307129,5.068702220916748,-23.215862274169922,24.161474227905273,0.0,44.13859558105469,-43.783203125,27.246126174926758,-22.612829208374023,23.546831130981445,0.0
162,-2.95849609375,-2.84716796875,-5.9462890625,7.4809160232543945,-7.190839767456055,4.992366313934326,-23.204139709472656,24.16806411743164,0.0,44.17599868774414,-43.819156646728516,27.271087646484375,-22.594770431518555,23.531099319458008,0.0
167,-2.955322265625,-2.8486328125,-5.9453125,7.3740458488464355,-6.977099418640137,4.687022686004639,-23.221965789794922,24.145906448364258,0.0,44.212867736816406,-43.854042053222656,27.294523239135742,-22.57775115966797,23.515636444091797,0.0
172,-2.95361328125,-2.845458984375,-5.944091796875,7.526717662811279,-7.358778476715088,4.885496139526367,-23.20462417602539,24.141555786132812,0.0,44.2504997253418,-43.89083480834961,27.318950653076172,-22.559432983398438,23.498106002807617,0.0
177,-2.95751953125,-2.847900390625,-5.9443359375,7.2366414070129395,-7.282442569732666,4.977099418640137,-23.2163028717041,24.165691375732422,0.0,44.28668212890625,-43.92724609375,27.343835830688477,-22.542856216430664,23.481609344482422,0.0
182,-2.951171875,-2.848876953125,-5.944580078125,7.267175674438477,-7.206106662750244,4.7633585929870605,-23.2315731048584,24.11766242980957,0.0,44.32301712036133,-43.96327590942383,27.367652893066406,-22.526498794555664,23.46409797668457,0.0
187,-2.95361328125,-2.8466796875,-5.94482421875,7.4809160232543945,-7.557251930236816,4.931297779083252,-23.21147346496582,24.13770294189453,0.0,44.36042022705078,-44.001060485839844,27.392309188842773,-22.508493423461914,23.445417404174805,0.0
192,-2.958984375,-2.8466796875,-5.9462890625,7.160305500030518,-7.2366414070129395,4.85496187210083,-23.199901580810547,24.17228126525879,0.0,44.39622116088867,-44.0372428894043,27.416584014892578,-22.491743087768555,23.429224014282227,0.0
197,-2.958740234375,-2.845703125,-5.947021484375,7.465648651123047,-7.007633686065674,5.221374034881592,-23.191078186035156,24.16973876953125,0.0,44.43354797363281,-44.07228088378906,27.442691802978516,-22.473249435424805,23.414016723632812,0.0
202,-2.952392578125,-2.850830078125,-5.943359375,7.541984558105469,-7.022900581359863,4.5190839767456055,-23.24753189086914,24.127330780029297,0.0,44.471256256103516,-44.10739517211914,27.465288162231445,-22.45581817626953,23.397594451904297,0.0
207,-2.95751953125,-2.845947265625,-5.948486328125,7.496183395385742,-7.267175674438477,4.916030406951904,-23.190458297729492,24.156278610229492,0.0,44.50873565673828,-44.14373016357422,27.4898681640625,-22.437183380126953,23.380664825439453,0.0
212,-2.955810546875,-2.84765625,-5.9501953125,7.618320465087891,-7.2366414070129395,4.549618244171143,-23.20050811767578,24.136526107788086,0.0,44.54682540893555,-44.17991256713867,27.512617111206055,-22.41822052001953,23.363388061523438,0.0
217,-2.952880859375,-2.85107421875,-5.949951171875,7.175572395324707,-7.2366414070129395,5.083969593048096,-23.230159759521484,24.111263275146484,0.0,44.58270263671875,-44.216094970703125,27.538036346435547,-22.402143478393555,23.345516204833984,0.0
223,-2.95361328125,-2.850341796875,-5.945556640625,7.41984748840332,-7.312977313995361,4.549618244171143,-23.236114501953125,24.130428314208984,0.0,44.61980056762695,-44.25265884399414,27.5607852935791,-22.384960174560547,23.32773208618164,0.0
228,-2.95751953125,-2.8486328125,-5.947509765625,7.6946563720703125,-7.541984558105469,4.870229244232178,-23.212757110595703,24.15537452697754,0.0,44.66596984863281,-44.29791259765625,27.59000587463379,-22.358381271362305,23.302045822143555,0.0
233,-2.955810546875,-2.852294921875,-5.943115234375,7.3740458488464355,-7.496183395385742,4.641221523284912,-23.25412940979004,24.15073013305664,0.0,44.70283889770508,-44.335391998291016,27.61321258544922,-22.341995239257812,23.284029006958008,0.0
238,-2.95361328125,-2.85009765625,-5.9462890625,7.3740458488464355,-7.038167953491211,4.778625965118408,-23.232282638549805,24.128629684448242,0.0,44.739707946777344,-44.370582580566406,27.63710594177246,-22.325092315673828,23.267786026000977,0.0
243,-2.955810546875,-2.846923828125,-5.948486328125,7.099236488342285,-7.297709941864014,4.85496187210083,-23.199951171875,24.142549514770508,0.0,44.775203704833984,-44.40707015991211,27.661380767822266,-22.308826446533203,23.250545501708984,0.0
248,-2.957763671875,-2.847412109375,-5.948486328125,7.679389476776123,-7.14503812789917,5.053435325622559,-23.20079231262207,24.155994415283203,0.0,44.813602447509766,-44.44279479980469,27.686647415161133,-22.289716720581055,23.234331130981445,0.0
253,-2.953369140625,-2.84814453125,-5.9423828125,7.557251930236816,-7.328244209289551,5.206106662750244,-23.229331970214844,24.14102554321289,0.0,44.85138702392578,-44.479434967041016,27.712677001953125,-22.271821975708008,23.216888427734375,0.0
258,-2.958984375,-2.851318359375,-5.948974609375,7.603053569793701,-7.160305500030518,4.885496139526367,-23.22618293762207,24.15791893005371,0.0,44.889400482177734,-44.515235900878906,27.737104415893555,-22.253643035888672,23.200613021850586,0.0
263,-2.95751953125,-2.8505859375,-5.94482421875,7.3740458488464355,-7.603053569793701,4.931297779083252,-23.23450469970703,24.160493850708008,0.0,44.92626953125,-44.55324935913086,27.761760711669922,-22.236759185791016,23.18219566345215,0.0
268,-2.954833984375,-2.849609375,-5.949951171875,7.129770755767822,-6.885496139526367,4.824427604675293,-23.216773986816406,24.127443313598633,0.0,44.961917877197266,-44.587677001953125,27.7858829498291,-22.22071647644043,23.16667938232422,0.0
273,-2.9560546875,-2.847900390625,-5.945556640625,7.41984748840332,-7.72519063949585,4.961832046508789,-23.214923858642578,24.151517868041992,0.0,44.99901580810547,-44.626304626464844,27.810691833496094,-22.20319175720215,23.147480010986328,0.0
278,-2.956298828125,-2.845947265625,-5.94580078125,7.358778476715088,-7.007633686065674,4.839694499969482,-23.199665069580078,24.15530776977539,0.0,45.03580856323242,-44.66134262084961,27.834890365600586,-22.185688018798828,23.131912231445312,0.0
283,-2.957275390625,-2.849365234375,-5.94189453125,7.251908302307129,-7.572519302368164,4.656488418579102,-23.234155654907227,24.169017791748047,0.0,45.07206726074219,-44.69920349121094,27.858173370361328,-22.169357299804688,23.113798141479492,0.0
288,-2.9580078125,-2.849853515625,-5.956298828125,7.465648651123047,-7.3740458488464355,4.7633585929870605,-23.196395874023438,24.13150405883789,0.0,45.10939407348633,-44.7360725402832,27.881990432739258,-22.151275634765625,23.095996856689453,0.0
293,-2.954833984375,-2.845947265625,-5.94140625,7.618320465087891,-7.068702220916748,4.900763511657715,-23.214004516601562,24.15757179260254,0.0,45.147483825683594,-44.77141571044922,27.906494140625,-22.132783889770508,23.080183029174805,0.0
298,-2.95751953125,-2.84423828125,-5.9482421875,7.648854732513428,-7.3740458488464355,5.022900581359863,-23.17868423461914,24.159385681152344,0.0,45.18572998046875,-44.808284759521484,27.931608200073242,-22.113550186157227,23.062883377075195,0.0
303,-2.955810546875,-2.84814453125,-5.9404296875,7.633587837219238,-7.43511438369751,4.977099418640137,-23.231403350830078,24.164419174194336,0.0,45.22389602661133,-44.845458984375,27.956493377685547,-22.095354080200195,23.045379638671875,0.0
309,-2.956298828125,-2.85009765625,-5.942626953125,7.43511438369751,-7.099236488342285,4.916030406951904,-23.23880386352539,24.158777236938477,0.0,45.26850509643555,-44.88805389404297,27.98598861694336,-22.070993423461914,23.02248764038086,0.0
314,-2.954345703125,-2.84912109375,-5.9453125,7.511450290679932,-7.099236488342285,4.900763511657715,-23.226882934570312,24.138154983520508,0.0,45.306060791015625,-44.92354965209961,28.0104923248291,-22.05348777770996,23.00633430480957,0.0
319,-2.954833984375,-2.85009765625,-5.947021484375,7.465648651123047,-7.343511581420898,5.038167953491211,-23.228532791137695,24.13532257080078,0.0,45.343387603759766,-44.96026611328125,28.035682678222656,-22.036245346069336,22.988927841186523,0.0
324,-2.955322265625,-2.8544921875,-5.948486328125,7.450381755828857,-7.190839767456055,5.022900581359863,-23.25575828552246,24.128416061401367,0.0,45.380638122558594,-44.996219635009766,28.0607967376709,-22.019529342651367,22.97218132019043,0.0
329,-2.954345703125,-2.8466796875,-5.94384765625,7.160305500030518,-7.007633686065674,4.870229244232178,-23.21318817138672,24.145862579345703,0.0,45.416439056396484,-45.03125762939453,28.085147857666016,-22.00354766845703,22.956628799438477,0.0
334,-2.958740234375,-2.846923828125,-5.9443359375,7.297709941864014,-7.282442569732666,4.732824325561523,-23.20748519897461,24.175893783569336,0.0,45.45292663574219,-45.06766891479492,28.10881233215332,-21.986791610717773,22.94019317626953,0.0
339,-2.954833984375,-2.850341796875,-5.947509765625,7.450381755828857,-7.160305500030518,4.946564674377441,-23.228944778442383,24.13355255126953,0.0,45.490177154541016,-45.10346984863281,28.133544921875,-21.969629287719727,22.92369270324707,0.0
344,-2.958740234375,-2.850341796875,-5.942626953125,7.541984558105469,-7.343511581420898,5.175572395324707,-23.237178802490234,24.17609977722168,0.0,45.52788543701172,-45.14018630981445,28.159421920776367,-21.9521541595459,22.906959533691406,0.0
349,-2.95361328125,-2.851318359375,-5.945556640625,7.404580116271973,-7.496183395385742,4.839694499969482,-23.24323081970215,24.129060745239258,0.0,45.56490707397461,-45.17766571044922,28.18362045288086,-21.935462951660156,22.888761520385742,0.0
354,-2.9521484375,-2.8505859375,-5.955810546875,7.175572395324707,-7.389312744140625,4.900763511657715,-23.211219787597656,24.08954620361328,0.0,45.60078430175781,-45.2146110534668,28.2081241607666,-21.919418334960938,22.870529174804688,0.0
359,-2.955322265625,-2.85302734375,-5.94384765625,7.251908302307129,-7.114503860473633,4.961832046508789,-23.258092880249023,24.144025802612305,0.0,45.63704299926758,-45.25018310546875,28.232933044433594,-21.90369987487793,22.85451316833496,0.0
364,-2.952880859375,-2.851806640625,-5.94970703125,7.6946563720703125,-7.404580116271973,5.114503860473633,-23.236177444458008,24.110950469970703,0.0,45.67551803588867,-45.28720474243164,28.25850486755371,-21.885465621948242,22.836584091186523,0.0
369,-2.953125,-2.8515625,-5.940185546875,7.389312744140625,-7.541984558105469,4.992366313934326,-23.260751724243164,24.140888214111328,0.0,45.71246337890625,-45.324913024902344,28.283466339111328,-21.869123458862305,22.81845474243164,0.0
374,-2.9541015625,-2.846435546875,-5.947509765625,7.160305500030518,-7.282442569732666,4.870229244232178,-23.20149803161621,24.13372230529785,0.0,45.74826431274414,-45.361324310302734,28.307817459106445,-21.853057861328125,22.80154037475586,0.0
379,-2.956298828125,-2.851806640625,-5.9462890625,7.389312744140625,-7.343511581420898,5.618320465087891,-23.240995407104492,24.145666122436523,0.0,45.78520965576172,-45.398040771484375,28.335908889770508,-21.8364315032959,22.784515380859375,0.0
384,-2.957275390625,-2.85107421875,-5.93603515625,7.526717662811279,-7.312977313995361,4.793893337249756,-23.263042449951172,24.183780670166016,0.0,45.82284164428711,-45.43460464477539,28.359878540039062,-21.81945037841797,22.76820182800293,0.0
390,-2.950927734375,-2.848876953125,-5.9423828125,7.511450290679932,-7.43511438369751,4.717557430267334,-23.23807144165039,24.122318267822266,0.0,45.8679084777832,-45.47921371459961,28.38818359375,-21.794830322265625,22.743131637573242,0.0
395,-2.956298828125,-2.8515625,-5.94873046875,7.3740458488464355,-7.206106662750244,4.793893337249756,-23.232379913330078,24.138870239257812,0.0,45.90477752685547,-45.51524353027344,28.412153244018555,-21.778337478637695,22.726890563964844,0.0
400,-2.952392578125,-2.851806640625,-5.946533203125,7.389312744140625,-7.297709941864014,5.053435325622559,-23.245750427246094,24.11668586730957,0.0,45.94172286987305,-45.55173110961914,28.437419891357422,-21.761964797973633,22.70990753173828,0.0
405,-2.955322265625,-2.849609375,-5.943115234375,7.511450290679932,-7.328244209289551,4.885496139526367,-23.23523712158203,24.150964736938477,0.0,45.979278564453125,-45.58837127685547,28.46184730529785,-21.744855880737305,22.693265914916992,0.0
410,-2.95556640625,-2.8505859375,-5.94775390625,7.572519302368164,-7.022900581359863,5.175572395324707,-23.229021072387695,24.13779640197754,0.0,46.01713943481445,-45.62348556518555,28.48772430419922,-21.727384567260742,22.677974700927734,0.0
415,-2.956298828125,-2.848388671875,-5.94189453125,7.4809160232543945,-7.41984748840332,4.809160232543945,-23.228397369384766,24.163320541381836,0.0,46.054542541503906,-45.66058349609375,28.511770248413086,-21.710384368896484,22.661067962646484,0.0
420,-2.95849609375,-2.847412109375,-5.94189453125,7.541984558105469,-7.465648651123047,4.839694499969482,-23.218215942382812,24.180593490600586,0.0,46.09225082397461,-45.69791030883789,28.535968780517578,-21.69297218322754,22.64418601989746,0.0
425,-2.95556640625,-2.8486328125,-5.93994140625,7.190839767456055,-7.267175674438477,4.793893337249756,-23.236671447753906,24.163394927978516,0.0,46.128204345703125,-45.73424530029297,28.559938430786133,-21.67756462097168,22.628082275390625,0.0
430,-2.95654296875,-2.849609375,-5.938720703125,7.603053569793701,-7.190839767456055,5.083969593048096,-23.245851516723633,24.17266845703125,0.0,46.16621780395508,-45.770198822021484,28.585357666015625,-21.660242080688477,22.612489700317383,0.0
435,-2.952880859375,-2.848388671875,-5.94384765625,7.083969593048096,-7.083969593048096,4.809160232543945,-23.22768783569336,24.13286018371582,0.0,46.201637268066406,-45.80561828613281,28.609403610229492,-21.645278930664062,22.596925735473633,0.0
440,-2.9599609375,-2.8466796875,-5.9453125,7.389312744140625,-7.251908302307129,4.992366313934326,-23.201274871826172,24.182205200195312,0.0,46.238582611083984,-45.84187698364258,28.63436508178711,-21.62847328186035,22.5811710357666,0.0
445,-2.95654296875,-2.846923828125,-5.9453125,7.267175674438477,-7.404580116271973,4.732824325561523,-23.20781135559082,24.157135009765625,0.0,46.27491760253906,-45.87889862060547,28.658029556274414,-21.612382888793945,22.56435775756836,0.0
450,-2.959716796875,-2.84912109375,-5.94580078125,6.885496139526367,-7.648854732513428,5.053435325622559,-23.21803855895996,24.17558479309082,0.0,46.30934524536133,-45.917144775390625,28.68329620361328,-21.59832191467285,22.54659652709961,0.0
455,-2.954345703125,-2.8505859375,-5.953125,7.603053569793701,-7.099236488342285,4.610687255859375,-23.21568489074707,24.1132755279541,0.0,46.34735870361328,-45.952640533447266,28.706350326538086,-21.5806827545166,22.53082275390625,0.0
460,-2.955078125,-2.847900390625,-5.948974609375,7.557251930236816,-7.251908302307129,4.85496187210083,-23.20671844482422,24.13445472717285,0.0,46.3851432800293,-45.98889923095703,28.73062515258789,-21.563199996948242,22.514575958251953,0.0
465,-2.955322265625,-2.845703125,-5.9482421875,7.221374034881592,-7.206106662750244,4.7633585929870605,-23.192415237426758,24.14143943786621,0.0,46.42124938964844,-46.02492904663086,28.75444221496582,-21.547243118286133,22.498666763305664,0.0
471,-2.9541015625,-2.850830078125,-5.9453125,7.4809160232543945,-7.450381755828857,5.038167953491211,-23.23967742919922,24.133991241455078,0.0,46.46613311767578,-46.06962966918945,28.784671783447266,-21.523235321044922,22.474153518676758,0.0
476,-2.95263671875,-2.8466796875,-5.9375,7.221374034881592,-7.404580116271973,4.656488418579102,-23.23335838317871,24.152070999145508,0.0,46.50223922729492,-46.106651306152344,28.807954788208008,-21.5079402923584,22.457569122314453,0.0
481,-2.953369140625,-2.850830078125,-5.945556640625,7.648854732513428,-7.099236488342285,5.083969593048096,-23.24001121520996,24.12797737121582,0.0,46.54048538208008,-46.142147064208984,28.8333740234375,-21.490623474121094,22.442237854003906,0.0
486,-2.9541015625,-2.849853515625,-5.946044921875,7.389312744140625,-7.41984748840332,4.916030406951904,-23.23050880432129,24.13321876525879,0.0,46.577430725097656,-46.17924499511719,28.857954025268555,-21.474512100219727,22.42540168762207,0.0
491,-2.95458984375,-2.84814453125,-5.936767578125,7.328244209289551,-7.297709941864014,4.687022686004639,-23.24337387084961,24.166309356689453,0.0,46.614070892333984,-46.21573257446289,28.881389617919922,-21.45887565612793,22.409589767456055,0.0
496,-2.955078125,-2.84814453125,-5.939697265625,7.3740458488464355,-7.282442569732666,5.053435325622559,-23.23447608947754,24.1612606048584,0.0,46.65093994140625,-46.25214385986328,28.90665626525879,-21.44292640686035,22.39381980895996,0.0
501,-2.954833984375,-2.846923828125,-5.941162109375,7.526717662811279,-7.297709941864014,4.595419883728027,-23.221811294555664,24.156917572021484,0.0,46.68857192993164,-46.288631439208984,28.92963409423828,-21.426101684570312,22.377944946289062,0.0
506,-2.959228515625,-2.84814453125,-5.9462890625,7.603053569793701,-7.404580116271973,5.068702220916748,-23.210237503051758,24.171993255615234,0.0,46.726585388183594,-46.325653076171875,28.95497703552246,-21.408802032470703,22.361738204956055,0.0
511,-2.9560546875,-2.8486328125,-5.947998046875,7.343511581420898,-7.526717662811279,4.4122138023376465,-23.213428497314453,24.14335060119629,0.0,46.763301849365234,-46.363285064697266,28.97703742980957,-21.39286231994629,22.344633102416992,0.0
516,-2.954345703125,-2.850341796875,-5.94580078125,7.465648651123047,-7.618320465087891,4.946564674377441,-23.234411239624023,24.1350154876709,0.0,46.800628662109375,-46.40137481689453,29.00177001953125,-21.3765811920166,22.327024459838867,0.0
521,-2.95361328125,-2.849365234375,-5.944091796875,7.267175674438477,-7.099236488342285,4.961832046508789,-23.23310089111328,24.13608169555664,0.0,46.83696365356445,-46.43687057495117,29.026578903198242,-21.361297607421875,22.312042236328125,0.0
526,-2.95703125,-2.8505859375,-5.94140625,7.5877861976623535,-6.992366313934326,4.977099418640137,-23.244760513305664,24.16696548461914,0.0,46.874900817871094,-46.471832275390625,29.051464080810547,-21.344575881958008,22.297948837280273,0.0
531,-2.960205078125,-2.846923828125,-5.946533203125,7.221374034881592,-7.526717662811279,4.702290058135986,-23.19930076599121,24.1800537109375,0.0,46.911006927490234,-46.509464263916016,29.074975967407227,-21.32920265197754,22.2813663482666,0.0
536,-2.95654296875,-2.84814453125,-5.942138671875,7.404580116271973,-7.038167953491211,5.251908302307129,-23.22559356689453,24.164714813232422,0.0,46.948028564453125,-46.544654846191406,29.10123634338379,-21.313234329223633,22.26706886291504,0.0
541,-2.953125,-2.852294921875,-5.944580078125,7.2366414070129395,-7.267175674438477,4.900763511657715,-23.253765106201172,24.127010345458984,0.0,46.98421096801758,-46.580989837646484,29.12574005126953,-21.298431396484375,22.251243591308594,0.0
546,-2.9560546875,-2.84814453125,-5.94287109375,7.328244209289551,-6.946564674377441,5.282442569732666,-23.224224090576172,24.15903663635254,0.0,47.020851135253906,-46.61572265625,29.15215301513672,-21.282873153686523,22.237380981445312,0.0
552,-2.960205078125,-2.84765625,-5.94921875,7.358778476715088,-7.083969593048096,5.099236488342285,-23.19713020324707,24.17116355895996,0.0,47.06500244140625,-46.658226013183594,29.182748794555664,-21.259660720825195,22.21600914001465,0.0
557,-2.95751953125,-2.84619140625,-5.947021484375,7.114503860473633,-7.206106662750244,4.641221523284912,-23.196332931518555,24.16022491455078,0.0,47.1005744934082,-46.69425582885742,29.205955505371094,-21.245038986206055,22.20101547241211,0.0
562,-2.956787109375,-2.84521484375,-5.944091796875,7.251908302307129,-7.083969593048096,5.022900581359863,-23.198429107666016,24.164871215820312,0.0,47.13683319091797,-46.72967529296875,29.231069564819336,-21.229780197143555,22.186697006225586,0.0
567,-2.960693359375,-2.849365234375,-5.946044921875,7.618320465087891,-6.961832046508789,4.503816604614258,-23.2177734375,24.181589126586914,0.0,47.174922943115234,-46.76448440551758,29.25358772277832,-21.21293830871582,22.173175811767578,0.0
572,-2.956787109375,-2.85205078125,-5.947021484375,7.221374034881592,-7.557251930236816,5.129770755767822,-23.240041732788086,24.146713256835938,0.0,47.211029052734375,-46.802268981933594,29.27923583984375,-21.198335647583008,22.156352996826172,0.0
577,-2.95703125,-2.84716796875,-5.939453125,7.389312744140625,-7.358778476715088,4.900763511657715,-23.22531509399414,24.177488327026367,0.0,47.24797439575195,-46.83906173706055,29.303739547729492,-21.182767868041992,22.1408748626709,0.0
582,-2.954833984375,-2.846923828125,-5.948974609375,7.267175674438477,-7.282442569732666,5.190839767456055,-23.199941635131836,24.134056091308594,0.0,47.28430938720703,-46.87547302246094,29.329692840576172,-21.16757583618164,22.1253604888916,0.0
587,-2.958740234375,-2.849853515625,-5.94189453125,7.297709941864014,-6.900763511657715,5.190839767456055,-23.235671997070312,24.178932189941406,0.0,47.320796966552734,-46.909976959228516,29.35564613342285,-21.152626037597656,22.112226486206055,0.0
592,-2.955322265625,-2.849365234375,-5.94580078125,7.328244209289551,-7.43511438369751,4.992366313934326,-23.225934982299805,24.143451690673828,0.0,47.35743713378906,-46.94715118408203,29.38060760498047,-21.137451171875,22.096094131469727,0.0
597,-2.954833984375,-2.8486328125,-5.94482421875,7.343511581420898,-7.297709941864014,4.748091697692871,-23.22401237487793,24.143800735473633,0.0,47.3941535949707,-46.983638763427734,29.404348373413086,-21.122211456298828,22.080686569213867,0.0
602,-2.9580078125,-2.84912109375,-5.939208984375,7.2366414070129395,-7.358778476715088,5.206106662750244,-23.23887825012207,24.182527542114258,0.0,47.430335998535156,-47.02043151855469,29.430377960205078,-21.107681274414062,22.065401077270508,0.0
607,-2.955322265625,-2.85009765625,-5.938720703125,7.297709941864014,-7.267175674438477,4.885496139526367,-23.251115798950195,24.163145065307617,0.0,47.46682357788086,-47.056766510009766,29.454805374145508,-21.092992782592773,22.0504093170166,0.0
612,-2.95458984375,-2.849853515625,-5.952880859375,7.2366414070129395,-7.160305500030518,4.870229244232178,-23.210695266723633,24.116777420043945,0.0,47.50300598144531,-47.092567443847656,29.479156494140625,-21.078231811523438,22.0355167388916,0.0
617,-2.961181640625,-2.84912109375,-5.946533203125,7.2366414070129395,-7.068702220916748,5.129770755767822,-23.21394920349121,24.18403434753418,0.0,47.539188385009766,-47.12791061401367,29.504804611206055,-21.06353187561035,22.021774291992188,0.0
622,-2.955810546875,-2.8486328125,-5.946533203125,7.160305500030518,-7.099236488342285,5.175572395324707,-23.21786880493164,24.1458683013916,0.0,47.574989318847656,-47.16340637207031,29.530681610107422,-21.049278259277344,22.007524490356445,0.0
627,-2.9580078125,-2.844482421875,-5.942626953125,7.282442569732666,-7.358778476715088,4.839694499969482,-23.195486068725586,24.179025650024414,0.0,47.61140060424805,-47.200199127197266,29.554880142211914,-21.034225463867188,21.992340087890625,0.0
633,-2.9580078125,-2.8486328125,-5.949951171875,7.603053569793701,-7.297709941864014,4.824427604675293,-23.205249786376953,24.151763916015625,0.0,47.6494140625,-47.23668670654297,29.579002380371094,-21.01771354675293,21.97722625732422,0.0
638,-2.9560546875,-2.84814453125,-5.947265625,7.312977313995361,-7.450381755828857,4.946564674377441,-23.21192169189453,24.146177291870117,0.0,47.69329071044922,-47.28138732910156,29.60868263244629,-20.99555206298828,21.954004287719727,0.0
643,-2.956298828125,-2.85009765625,-5.94677734375,7.282442569732666,-7.114503860473633,4.870229244232178,-23.2271785736084,24.14663314819336,0.0,47.72970199584961,-47.316959381103516,29.633033752441406,-20.981035232543945,21.939943313598633,0.0
648,-2.953125,-2.847412109375,-5.94580078125,7.083969593048096,-7.099236488342285,4.610687255859375,-23.214757919311523,24.13028335571289,0.0,47.76512145996094,-47.352455139160156,29.65608787536621,-20.967411041259766,21.925827026367188,0.0
653,-2.956787109375,-2.847900390625,-5.94580078125,7.557251930236816,-7.190839767456055,4.7633585929870605,-23.21322250366211,24.156103134155273,0.0,47.80290603637695,-47.38840866088867,29.67990493774414,-20.95145034790039,21.91153335571289,0.0
658,-2.955078125,-2.846435546875,-5.943115234375,7.297709941864014,-7.14503812789917,4.916030406951904,-23.212440490722656,24.153650283813477,0.0,47.839393615722656,-47.42413330078125,29.704484939575195,-20.936811447143555,21.897472381591797,0.0
663,-2.95361328125,-2.846923828125,-5.942138671875,7.70992374420166,-7.389312744140625,5.053435325622559,-23.220775604248047,24.145219802856445,0.0,47.87794494628906,-47.46107864379883,29.729751586914062,-20.920242309570312,21.88214874267578,0.0
668,-2.9599609375,-2.845947265625,-5.95263671875,7.465648651123047,-7.251908302307129,5.068702220916748,-23.175472259521484,24.161788940429688,0.0,47.9152717590332,-47.497337341308594,29.755094528198242,-20.904508590698242,21.867704391479492,0.0
673,-2.959228515625,-2.84765625,-5.948974609375,7.343511581420898,-7.160305500030518,5.43511438369751,-23.199169158935547,24.16481590270996,0.0,47.951988220214844,-47.533138275146484,29.782270431518555,-20.889646530151367,21.853775024414062,0.0
678,-2.95751953125,-2.845947265625,-5.947265625,7.43511438369751,-7.160305500030518,4.946564674377441,-23.193872451782227,24.15985107421875,0.0,47.98916244506836,-47.568939208984375,29.807003021240234,-20.874319076538086,21.839826583862305,0.0
683,-2.954833984375,-2.84814453125,-5.949951171875,7.343511581420898,-7.41984748840332,4.900763511657715,-23.206104278564453,24.129493713378906,0.0,48.02587890625,-47.60603713989258,29.831506729125977,-20.859601974487305,21.824338912963867,0.0
688,-2.953857421875,-2.845947265625,-5.95458984375,7.282442569732666,-6.824427604675293,4.931297779083252,-23.178482055664062,24.11194610595703,0.0,48.06229019165039,-47.640159606933594,29.856163024902344,-20.844970703125,21.81168556213379,0.0
693,-2.95263671875,-2.84912109375,-5.94384765625,7.343511581420898,-7.251908302307129,4.748091697692871,-23.233366012573242,24.13006591796875,0.0,48.09900665283203,-47.67641830444336,29.87990379333496,-20.830577850341797,21.797103881835938,0.0
698,-2.9560546875,-2.848388671875,-5.949951171875,7.3740458488464355,-7.862595558166504,4.427480697631836,-23.206186294555664,24.137981414794922,0.0,48.1358757019043,-47.71573257446289,29.902040481567383,-20.815818786621094,21.77960777282715,0.0
703,-2.95458984375,-2.847900390625,-5.938232421875,7.389312744140625,-7.068702220916748,5.099236488342285,-23.237483978271484,24.1623592376709,0.0,48.172821044921875,-47.751075744628906,29.927536010742188,-20.80130958557129,21.766332626342773,0.0
708,-2.957763671875,-2.849365234375,-5.945068359375,7.5877861976623535,-7.282442569732666,5.267175674438477,-23.224586486816406,24.163257598876953,0.0,48.210758209228516,-47.7874870300293,29.953872680664062,-20.785736083984375,21.752033233642578,0.0
714,-2.955810546875,-2.845703125,-5.945068359375,7.206106662750244,-7.251908302307129,4.946564674377441,-23.20061492919922,24.154260635375977,0.0,48.246788024902344,-47.82374572753906,29.978605270385742,-20.77188491821289,21.73784065246582,0.0
719,-2.958984375,-2.846923828125,-5.9453125,7.648854732513428,-6.961832046508789,4.717557430267334,-23.20441246032715,24.1747989654541,0.0,48.29268264770508,-47.865516662597656,30.00691032409668,-20.74837303161621,21.718454360961914,0.0
724,-2.95361328125,-2.849853515625,-5.9404296875,7.496183395385742,-7.603053569793701,5.022900581359863,-23.24692726135254,24.14611053466797,0.0,48.330162048339844,-47.90353012084961,30.032024383544922,-20.733699798583984,21.702613830566406,0.0
729,-2.953369140625,-2.849853515625,-5.946533203125,7.358778476715088,-7.679389476776123,5.160305500030518,-23.230159759521484,24.12649154663086,0.0,48.3669548034668,-47.94192886352539,30.057825088500977,-20.719594955444336,21.68627166748047,0.0
734,-2.95703125,-2.849853515625,-5.937744140625,7.541984558105469,-7.267175674438477,5.053435325622559,-23.24968910217285,24.178722381591797,0.0,48.4046630859375,-47.97826385498047,30.083091735839844,-20.704792022705078,21.672496795654297,0.0
739,-2.95703125,-2.850830078125,-5.941650390625,7.648854732513428,-7.129770755767822,4.85496187210083,-23.24585723876953,24.16590690612793,0.0,48.442909240722656,-48.013912200927734,30.10736656188965,-20.68946647644043,21.659320831298828,0.0
744,-2.956298828125,-2.8505859375,-5.940185546875,7.664122104644775,-7.297709941864014,4.961832046508789,-23.249204635620117,24.165239334106445,0.0,48.481231689453125,-48.05039978027344,30.13217544555664,-20.674142837524414,21.645334243774414,0.0
749,-2.957275390625,-2.84716796875,-5.945556640625,7.038167953491211,-7.343511581420898,4.7633585929870605,-23.207887649536133,24.161376953125,0.0,48.516422271728516,-48.08711624145508,30.15599250793457,-20.661603927612305,21.63112449645996,0.0
754,-2.9580078125,-2.846923828125,-5.9501953125,7.557251930236816,-7.328244209289551,4.870229244232178,-23.192119598388672,24.1534423828125,0.0,48.55420684814453,-48.123756408691406,30.180343627929688,-20.646377563476562,21.616960525512695,0.0
759,-2.953857421875,-2.851806640625,-5.94580078125,7.43511438369751,-6.809160232543945,4.85496187210083,-23.245763778686523,24.12942886352539,0.0,48.59138107299805,-48.15780258178711,30.204618453979492,-20.632274627685547,21.605199813842773,0.0
764,-2.95703125,-2.85400390625,-5.94873046875,7.267175674438477,-7.404580116271973,4.961832046508789,-23.2491397857666,24.140745162963867,0.0,48.627716064453125,-48.19482421875,30.229427337646484,-20.61907196044922,21.590606689453125,0.0
769,-2.954833984375,-2.84765625,-5.938720703125,7.465648651123047,-7.267175674438477,4.732824325561523,-23.233993530273438,24.163040161132812,0.0,48.665042877197266,-48.23115921020508,30.25309181213379,-20.60478401184082,21.576934814453125,0.0
774,-2.957763671875,-2.8544921875,-5.94873046875,7.41984748840332,-7.175572395324707,5.053435325622559,-23.251676559448242,24.145357131958008,0.0,48.70214080810547,-48.26703643798828,30.278358459472656,-20.590917587280273,21.563600540161133,0.0
779,-2.955078125,-2.8486328125,-5.94580078125,7.282442569732666,-7.251908302307129,4.7633585929870605,-23.220937728881836,24.142711639404297,0.0,48.73855209350586,-48.30329513549805,30.302175521850586,-20.577505111694336,21.54990005493164,0.0
784,-2.95654296875,-2.845458984375,-5.944580078125,7.496183395385742,-7.297709941864014,5.038167953491211,-23.199182510375977,24.161333084106445,0.0,48.776031494140625,-48.33978271484375,30.32736587524414,-20.56287956237793,21.536170959472656,0.0
789,-2.953125,-2.853271484375,-5.942138671875,7.557251930236816,-7.41984748840332,4.839694499969482,-23.267728805541992,24.132776260375977,0.0,48.81381607055664,-48.37688064575195,30.351564407348633,-20.548585891723633,21.521631240844727,0.0
795,-2.958740234375,-2.848876953125,-5.947021484375,7.343511581420898,-7.526717662811279,4.977099418640137,-23.214204788208008,24.16529083251953,0.0,48.85053253173828,-48.414512634277344,30.376449584960938,-20.534936904907227,21.506887435913086,0.0
800,-2.959228515625,-2.84765625,-5.947509765625,7.3740458488464355,-7.3740458488464355,4.595419883728027,-23.203264236450195,24.169103622436523,0.0,48.894775390625,-48.45875549316406,30.404022216796875,-20.513822555541992,21.485721588134766,0.0
805,-2.9560546875,-2.845703125,-5.944091796875,7.267175674438477,-7.206106662750244,4.946564674377441,-23.203006744384766,24.158885955810547,0.0,48.93111038208008,-48.49478530883789,30.428754806518555,-20.500652313232422,21.47271728515625,0.0
810,-2.9560546875,-2.8505859375,-5.94384765625,7.221374034881592,-7.664122104644775,4.824427604675293,-23.239280700683594,24.152751922607422,0.0,48.96721649169922,-48.53310775756836,30.452877044677734,-20.48805046081543,21.45742416381836,0.0
815,-2.95654296875,-2.84765625,-5.95166015625,7.511450290679932,-7.43511438369751,4.809160232543945,-23.19539451599121,24.137540817260742,0.0,49.0047721862793,-48.570281982421875,30.4769229888916,-20.473669052124023,21.443191528320312,0.0
820,-2.9599609375,-2.8505859375,-5.949462890625,7.511450290679932,-7.267175674438477,4.977099418640137,-23.218124389648438,24.16457748413086,0.0,49.042327880859375,-48.60661697387695,30.501808166503906,-20.45952606201172,21.43006706237793,0.0
825,-2.953857421875,-2.846923828125,-5.94140625,7.358778476715088,-7.221374034881592,4.748091697692871,-23.22248649597168,24.149131774902344,0.0,49.07912063598633,-48.642723083496094,30.525548934936523,-20.44622230529785,21.417076110839844,0.0
830,-2.95166015625,-2.848876953125,-5.93994140625,7.740458011627197,-7.129770755767822,4.778625965118408,-23.243898391723633,24.134763717651367,0.0,49.11782455444336,-48.67837142944336,30.549442291259766,-20.431243896484375,21.404457092285156,0.0
835,-2.960205078125,-2.849609375,-5.93603515625,7.618320465087891,-7.190839767456055,4.916030406951904,-23.248266220092773,24.20705223083496,0.0,49.155914306640625,-48.714324951171875,30.57402229309082,-20.416959762573242,21.39217185974121,0.0
840,-2.958251953125,-2.8515625,-5.94287109375,7.450381755828857,-7.114503860473633,5.083969593048096,-23.246070861816406,24.170137405395508,0.0,49.19316482543945,-48.74989700317383,30.599441528320312,-20.403535842895508,21.379989624023438,0.0
845,-2.957763671875,-2.848876953125,-5.942138671875,7.465648651123047,-7.114503860473633,5.038167953491211,-23.229230880737305,24.172521591186523,0.0,49.230491638183594,-48.78546905517578,30.624631881713867,-20.389936447143555,21.367856979370117,0.0
850,-2.954833984375,-2.846923828125,-5.941162109375,7.282442569732666,-7.14503812789917,5.007633686065674,-23.221811294555664,24.156917572021484,0.0,49.266902923583984,-48.82119369506836,30.649669647216797,-20.377227783203125,21.35547637939453,0.0
855,-2.95556640625,-2.84619140625,-5.94921875,7.282442569732666,-7.007633686065674,4.687022686004639,-23.192903518676758,24.139665603637695,0.0,49.303314208984375,-48.856231689453125,30.673105239868164,-20.364316940307617,21.34366798400879,0.0
860,-2.95458984375,-2.84619140625,-5.94580078125,7.251908302307129,-7.251908302307129,4.961832046508789,-23.20382308959961,24.142597198486328,0.0,49.33957290649414,-48.89249038696289,30.697914123535156,-20.351686477661133,21.330703735351562,0.0
865,-2.9599609375,-2.84912109375,-5.951416015625,7.511450290679932,-6.961832046508789,5.038167953491211,-23.201995849609375,24.160917282104492,0.0,49.37712860107422,-48.92729949951172,30.72310447692871,-20.33778953552246,21.319368362426758,0.0
870,-2.958984375,-2.84765625,-5.9462890625,7.43511438369751,-7.267175674438477,4.748091697692871,-23.20701789855957,24.17091178894043,0.0,49.414302825927734,-48.9636344909668,30.746845245361328,-20.324357986450195,21.30662727355957,0.0
875,-2.95458984375,-2.85009765625,-5.941162109375,7.496183395385742,-7.2366414070129395,4.916030406951904,-23.245290756225586,24.150693893432617,0.0,49.4517822265625,-48.99981689453125,30.771425247192383,-20.31097984313965,21.29391098022461,0.0
881,-2.95458984375,-2.849365234375,-5.94580078125,7.190839767456055,-7.389312744140625,4.931297779083252,-23.22695541381836,24.138151168823242,0.0,49.49492645263672,-49.044151306152344,30.801013946533203,-20.29193687438965,21.273101806640625,0.0
886,-2.956787109375,-2.84619140625,-5.946533203125,7.5877861976623535,-7.068702220916748,4.7633585929870605,-23.19871711730957,24.156354904174805,0.0,49.53286361694336,-49.07949447631836,30.824831008911133,-20.277915954589844,21.261465072631836,0.0
891,-2.955810546875,-2.849365234375,-5.94677734375,7.328244209289551,-7.190839767456055,5.175572395324707,-23.22252082824707,24.144128799438477,0.0,49.56950378417969,-49.115447998046875,30.8507080078125,-20.265424728393555,21.249155044555664,0.0
896,-2.956298828125,-2.8525390625,-5.9423828125,7.068702220916748,-7.312977313995361,4.641221523284912,-23.257280349731445,24.156063079833984,0.0,49.6048469543457,-49.15201187133789,30.87391471862793,-20.254539489746094,21.236371994018555,0.0
901,-2.957275390625,-2.848388671875,-5.947509765625,7.328244209289551,-7.404580116271973,4.687022686004639,-23.211318969726562,24.15395164489746,0.0,49.64148712158203,-49.18903350830078,30.897350311279297,-20.242019653320312,21.22315788269043,0.0
906,-2.961181640625,-2.849365234375,-5.939453125,7.557251930236816,-7.2366414070129395,4.809160232543945,-23.235544204711914,24.204439163208008,0.0,49.67927169799805,-49.225215911865234,30.921396255493164,-20.22859764099121,21.21122932434082,0.0
911,-2.9560546875,-2.8447265625,-5.940673828125,7.511450290679932,-7.190839767456055,5.022900581359863,-23.20545196533203,24.170269012451172,0.0,49.716827392578125,-49.26116943359375,30.946510314941406,-20.215208053588867,21.19928741455078,0.0
916,-2.9560546875,-2.84716796875,-5.939208984375,7.358778476715088,-7.312977313995361,4.824427604675293,-23.22736167907715,24.171133041381836,0.0,49.75362014770508,-49.297733306884766,30.970632553100586,-20.202796936035156,21.18678092956543,0.0
921,-2.95556640625,-2.847412109375,-5.95361328125,7.358778476715088,-7.358778476715088,4.641221523284912,-23.189512252807617,24.125112533569336,0.0,49.79041290283203,-49.33452606201172,30.993839263916016,-20.190122604370117,21.173721313476562,0.0
926,-2.9580078125,-2.8466796875,-5.951416015625,7.175572395324707,-7.206106662750244,4.977099418640137,-23.18692970275879,24.15021324157715,0.0,49.826290130615234,-49.37055587768555,31.01872444152832,-20.178380966186523,21.161666870117188,0.0
931,-2.954345703125,-2.852783203125,-5.945556640625,7.312977313995361,-7.328244209289551,4.259541988372803,-23.252883911132812,24.132307052612305,0.0,49.86285400390625,-49.407196044921875,31.040021896362305,-20.166515350341797,21.148900985717773,0.0
936,-2.954833984375,-2.85009765625,-5.9443359375,7.3740458488464355,-7.206106662750244,4.732824325561523,-23.236055374145508,24.14317512512207,0.0,49.899723052978516,-49.4432258605957,31.06368637084961,-20.15424919128418,21.136873245239258,0.0
941,-2.9560546875,-2.847900390625,-5.946044921875,7.053435325622559,-7.389312744140625,4.839694499969482,-23.213558197021484,24.150089263916016,0.0,49.93498992919922,-49.48017120361328,31.0878849029541,-20.143436431884766,21.1240291595459,0.0
946,-2.9580078125,-2.85009765625,-5.950927734375,7.328244209289551,-7.6946563720703125,5.160305500030518,-23.21318817138672,24.14685821533203,0.0,49.97163009643555,-49.518646240234375,31.113685607910156,-20.131284713745117,21.109689712524414,0.0
951,-2.955078125,-2.845947265625,-5.951171875,7.4809160232543945,-7.297709941864014,4.992366313934326,-23.186342239379883,24.13076400756836,0.0,50.009033203125,-49.55513381958008,31.138647079467773,-20.11820411682129,21.09724998474121,0.0
956,-2.95361328125,-2.844970703125,-5.95068359375,7.358778476715088,-7.251908302307129,4.534351348876953,-23.18262481689453,24.12295913696289,0.0,50.04582595825195,-49.591392517089844,31.161319732666016,-20.105749130249023,21.08502197265625,0.0
962,-2.954345703125,-2.848876953125,-5.944091796875,7.41984748840332,-7.206106662750244,4.56488561630249,-23.22852325439453,24.142066955566406,0.0,50.0903434753418,-49.63462829589844,31.188709259033203,-20.08609390258789,21.066123962402344,0.0
967,-2.95654296875,-2.849365234375,-5.945068359375,7.450381755828857,-7.450381755828857,4.885496139526367,-23.226287841796875,24.15442657470703,0.0,50.127593994140625,-49.671878814697266,31.213136672973633,-20.073728561401367,21.05335235595703,0.0
972,-2.95751953125,-2.848388671875,-5.94384765625,7.221374034881592,-7.251908302307129,4.610687255859375,-23.221227645874023,24.16643524169922,0.0,50.163700103759766,-49.70813751220703,31.236190795898438,-20.062503814697266,21.04170799255371,0.0
977,-2.956787109375,-2.84912109375,-5.945068359375,7.41984748840332,-7.541984558105469,4.748091697692871,-23.22416877746582,24.156536102294922,0.0,50.20079803466797,-49.745845794677734,31.259931564331055,-20.050350189208984,21.028583526611328,0.0
982,-2.955810546875,-2.85009765625,-5.94189453125,7.190839767456055,-7.404580116271973,4.900763511657715,-23.24153709411621,24.157386779785156,0.0,50.236751556396484,-49.782867431640625,31.284435272216797,-20.03951072692871,21.016197204589844,0.0
987,-2.9541015625,-2.8525390625,-5.946533203125,7.389312744140625,-7.557251930236816,4.885496139526367,-23.248708724975586,24.128028869628906,0.0,50.27369689941406,-49.82065200805664,31.308862686157227,-20.027772903442383,21.002870559692383,0.0
992,-2.9560546875,-2.849853515625,-5.951171875,7.511450290679932,-7.282442569732666,5.450381755828857,-23.213441848754883,24.13236427307129,0.0,50.31125259399414,-49.85706329345703,31.33611488342285,-20.015193939208984,20.99099349975586,0.0
997,-2.955810546875,-2.848876953125,-5.947265625,7.755725383758545,-7.70992374420166,4.687022686004639,-23.21759796142578,24.14338493347168,0.0,50.350032806396484,-49.89561462402344,31.35955047607422,-20.001482009887695,20.977123260498047,0.0
1002,-2.95703125,-2.8505859375,-5.939453125,7.5877861976623535,-7.068702220916748,5.038167953491211,-23.25023651123047,24.172685623168945,0.0,50.387969970703125,-49.93095779418945,31.384740829467773,-19.988910675048828,20.966716766357422,0.0
1007,-2.955322265625,-2.8486328125,-5.93994140625,7.190839767456055,-7.129770755767822,4.641221523284912,-23.23701286315918,24.1616268157959,0.0,50.42392349243164,-49.96660614013672,31.407947540283203,-19.978254318237305,20.95595359802246,0.0
1012,-2.9560546875,-2.848876953125,-5.944091796875,7.312977313995361,-7.267175674438477,5.251908302307129,-23.22614288330078,24.154436111450195,0.0,50.460487365722656,-50.0029411315918,31.434207916259766,-19.966938018798828,20.944486618041992,0.0
1017,-2.957763671875,-2.85107421875,-5.947265625,7.221374034881592,-7.4809160232543945,5.175572395324707,-23.230886459350586,24.15443229675293,0.0,50.4965934753418,-50.04034423828125,31.460084915161133,-19.956153869628906,20.93199920654297,0.0
1022,-2.95654296875,-2.8466796875,-5.9462890625,7.5877861976623535,-7.2366414070129395,4.85496187210083,-23.203298568725586,24.154619216918945,0.0,50.53453063964844,-50.0765266418457,31.484359741210938,-19.94337272644043,20.920774459838867,0.0
1027,-2.9580078125,-2.847412109375,-5.94580078125,7.282442569732666,-7.343511581420898,5.053435325622559,-23.207963943481445,24.165618896484375,0.0,50.57094192504883,-50.113243103027344,31.509626388549805,-19.932193756103516,20.90913963317871,0.0
1032,-2.954833984375,-2.850830078125,-5.945556640625,7.450381755828857,-7.267175674438477,5.190839767456055,-23.237972259521484,24.138578414916992,0.0,50.608192443847656,-50.14957809448242,31.535579681396484,-19.920448303222656,20.897720336914062,0.0
1037,-2.95458984375,-2.8447265625,-5.939697265625,7.175572395324707,-7.541984558105469,4.793893337249756,-23.210227966308594,24.16252326965332,0.0,50.64406967163086,-50.187286376953125,31.55954933166504,-19.90989875793457,20.885160446166992,0.0
1043,-2.95654296875,-2.849609375,-5.94482421875,7.3740458488464355,-7.496183395385742,4.641221523284912,-23.228750228881836,24.15479850769043,0.0,50.68831253051758,-50.232261657714844,31.5873966217041,-19.891284942626953,20.86544418334961,0.0
1048,-2.953125,-2.849609375,-5.948486328125,7.160305500030518,-7.465648651123047,4.748091697692871,-23.223251342773438,24.11935806274414,0.0,50.72411346435547,-50.269588470458984,31.61113739013672,-19.881103515625,20.853153228759766,0.0
1053,-2.9560546875,-2.845947265625,-5.93994140625,7.083969593048096,-7.526717662811279,5.2366414070129395,-23.216407775878906,24.17070198059082,0.0,50.7595329284668,-50.307220458984375,31.63732147216797,-19.871280670166016,20.84099769592285,0.0
1058,-2.9580078125,-2.85107421875,-5.945556640625,7.343511581420898,-7.312977313995361,4.870229244232178,-23.23533058166504,24.161197662353516,0.0,50.79624938964844,-50.34378433227539,31.661672592163086,-19.860340118408203,20.829875946044922,0.0
1063,-2.95654296875,-2.84912109375,-5.947998046875,7.358778476715088,-7.557251930236816,5.160305500030518,-23.216306686401367,24.146198272705078,0.0,50.83304214477539,-50.381568908691406,31.68747329711914,-19.849218368530273,20.817468643188477,0.0
1068,-2.955322265625,-2.8515625,-5.947021484375,7.358778476715088,-7.358778476715088,5.206106662750244,-23.238525390625,24.136802673339844,0.0,50.869834899902344,-50.41836166381836,31.713502883911133,-19.83830451965332,20.806026458740234,0.0
1073,-2.95703125,-2.85009765625,-5.95263671875,7.221374034881592,-7.129770755767822,4.992366313934326,-23.209766387939453,24.134803771972656,0.0,50.905941009521484,-50.454010009765625,31.73846435546875,-19.82789421081543,20.79574966430664,0.0
1078,-2.9541015625,-2.849853515625,-5.946044921875,7.4809160232543945,-7.328244209289551,5.175572395324707,-23.23050880432129,24.13321876525879,0.0,50.94334411621094,-50.49065017700195,31.764341354370117,-19.816387176513672,20.784509658813477,0.0
1083,-2.9521484375,-2.84912109375,-5.943115234375,7.450381755828857,-7.648854732513428,4.931297779083252,-23.236099243164062,24.128673553466797,0.0,50.980594635009766,-50.52889633178711,31.788997650146484,-19.805116653442383,20.771686553955078,0.0
1088,-2.957275390625,-2.8466796875,-5.9453125,7.572519302368164,-7.4809160232543945,5.083969593048096,-23.20501136779785,24.162776947021484,0.0,51.018455505371094,-50.56629943847656,31.814416885375977,-19.793048858642578,20.760007858276367,0.0
1093,-2.956298828125,-2.8505859375,-5.944580078125,7.43511438369751,-7.190839767456055,4.900763511657715,-23.236888885498047,24.152376174926758,0.0,51.05562973022461,-50.60225296020508,31.83892059326172,-19.781949996948242,20.749736785888672,0.0
1098,-2.95849609375,-2.8466796875,-5.943603515625,7.14503812789917,-7.2366414070129395,5.083969593048096,-23.208093643188477,24.17661476135254,0.0,51.09135437011719,-50.63843536376953,31.86433982849121,-19.772117614746094,20.739456176757812,0.0
1103,-2.956787109375,-2.848876953125,-5.945068359375,7.41984748840332,-7.267175674438477,4.977099418640137,-23.222389221191406,24.156877517700195,0.0,51.12845230102539,-50.67477035522461,31.889225006103516,-19.76106071472168,20.728912353515625,0.0
1108,-2.955810546875,-2.8525390625,-5.944091796875,7.43511438369751,-7.572519302368164,4.946564674377441,-23.253170013427734,24.147531509399414,0.0,51.165626525878906,-50.71263122558594,31.913957595825195,-19.750200271606445,20.716821670532227,0.0
1113,-2.955810546875,-2.8486328125,-5.943115234375,7.221374034881592,-7.14503812789917,4.748091697692871,-23.22743797302246,24.15587043762207,0.0,51.20173263549805,-50.748355865478516,31.937698364257812,-19.740249633789062,20.706966400146484,0.0
1118,-2.95751953125,-2.85009765625,-5.9482421875,7.557251930236816,-7.343511581420898,5.129770755767822,-23.22138023376465,24.151180267333984,0.0,51.23951721191406,-50.785072326660156,31.963346481323242,-19.728620529174805,20.696123123168945,0.0
1124,-2.95556640625,-2.849853515625,-5.94287109375,7.603053569793701,-7.206106662750244,5.206106662750244,-23.23736000061035,24.153104782104492,0.0,51.28513717651367,-50.82830810546875,31.994583129882812,-19.709453582763672,20.678936004638672,0.0
1129,-2.95654296875,-2.8515625,-5.952392578125,7.221374034881592,-7.267175674438477,4.916030406951904,-23.221792221069336,24.12993621826172,0.0,51.32124328613281,-50.86464309692383,32.0191650390625,-19.69971466064453,20.668514251708984,0.0
1134,-2.9580078125,-2.8525390625,-5.94921875,7.43511438369751,-7.129770755767822,4.824427604675293,-23.235748291015625,24.148433685302734,0.0,51.35841751098633,-50.900291442871094,32.04328536987305,-19.689050674438477,20.658950805664062,0.0
1139,-2.95703125,-2.85107421875,-5.942626953125,7.404580116271973,-7.312977313995361,4.946564674377441,-23.24489974975586,24.16270637512207,0.0,51.39543914794922,-50.93685531616211,32.06801986694336,-19.678646087646484,20.64861488342285,0.0
1144,-2.954345703125,-2.84521484375,-5.942138671875,7.038167953491211,-7.267175674438477,4.900763511657715,-23.207292556762695,24.15291976928711,0.0,51.43062973022461,-50.97319030761719,32.092525482177734,-19.66982078552246,20.638473510742188,0.0
1149,-2.9560546875,-2.848388671875,-5.9453125,7.206106662750244,-7.312977313995361,5.038167953491211,-23.219165802001953,24.151548385620117,0.0,51.46665954589844,-51.0097541809082,32.11771774291992,-19.6602783203125,20.628129959106445,0.0
1154,-2.9521484375,-2.84765625,-5.94775390625,7.450381755828857,-7.297709941864014,4.793893337249756,-23.212427139282227,24.117164611816406,0.0,51.503910064697266,-51.046241760253906,32.141685485839844,-19.649505615234375,20.61764907836914,0.0
1159,-2.9560546875,-2.84716796875,-5.9501953125,7.511450290679932,-7.14503812789917,4.900763511657715,-23.196611404418945,24.138975143432617,0.0,51.541465759277344,-51.081966400146484,32.16619110107422,-19.638355255126953,20.608129501342773,0.0
1164,-2.954833984375,-2.8515625,-5.945556640625,7.6946563720703125,-7.14503812789917,4.900763511657715,-23.243309020996094,24.13755226135254,0.0,51.57994079589844,-51.11769104003906,32.190696716308594,-19.626686096191406,20.5986328125,0.0
1169,-2.95703125,-2.85009765625,-5.950439453125,7.083969593048096,-7.190839767456055,4.85496187210083,-23.215911865234375,24.141223907470703,0.0,51.615360260009766,-51.15364456176758,32.214969635009766,-19.617897033691406,20.588970184326172,0.0
1174,-2.95751953125,-2.850341796875,-5.945556640625,7.664122104644775,-7.083969593048096,4.58015251159668,-23.230674743652344,24.158693313598633,0.0,51.653682708740234,-51.189064025878906,32.23786926269531,-19.606365203857422,20.580001831054688,0.0
1179,-2.958251953125,-2.849609375,-5.95166015625,7.3740458488464355,-7.099236488342285,5.099236488342285,-23.207244873046875,24.147165298461914,0.0,51.6905517578125,-51.22455978393555,32.26336669921875,-19.596149444580078,20.570903778076172,0.0
1184,-2.955322265625,-2.84912109375,-5.95166015625,7.358778476715088,-7.41984748840332,4.900763511657715,-23.207759857177734,24.126665115356445,0.0,51.72734451293945,-51.26165771484375,32.287872314453125,-19.5860538482666,20.560096740722656,0.0
1189,-2.9541015625,-2.84912109375,-5.94482421875,7.496183395385742,-7.282442569732666,4.793893337249756,-23.22859001159668,24.137815475463867,0.0,51.76482391357422,-51.29806900024414,32.31184005737305,-19.575468063354492,20.550100326538086,0.0
1194,-2.955078125,-2.84765625,-5.936767578125,7.41984748840332,-7.450381755828857,4.534351348876953,-23.2391300201416,24.1705322265625,0.0,51.80192184448242,-51.33531951904297,32.334510803222656,-19.56538200378418,20.539546966552734,0.0
1199,-2.956298828125,-2.85302734375,-5.942626953125,7.175572395324707,-6.946564674377441,4.931297779083252,-23.26015281677246,24.1546630859375,0.0,51.837799072265625,-51.370052337646484,32.359169006347656,-19.55670166015625,20.531421661376953,0.0
1205,-2.956787109375,-2.850830078125,-5.943603515625,7.557251930236816,-7.572519302368164,4.931297779083252,-23.240724563598633,24.158424377441406,0.0,51.88314437866211,-51.415489196777344,32.388755798339844,-19.538585662841797,20.512798309326172,0.0
1210,-2.9560546875,-2.84912109375,-5.938720703125,7.267175674438477,-7.160305500030518,4.778625965118408,-23.24297332763672,24.16982078552246,0.0,51.91947937011719,-51.451290130615234,32.41264724731445,-19.529525756835938,20.503923416137695,0.0
1215,-2.957275390625,-2.84619140625,-5.94921875,7.221374034881592,-7.267175674438477,4.6259541511535645,-23.190528869628906,24.152027130126953,0.0,51.95558547973633,-51.48762512207031,32.43577575683594,-19.520343780517578,20.494421005249023,0.0
1220,-2.952880859375,-2.850830078125,-5.94384765625,7.5877861976623535,-7.099236488342285,5.206106662750244,-23.2454833984375,24.129438400268555,0.0,51.99352264404297,-51.52312088012695,32.46180725097656,-19.509775161743164,20.48562240600586,0.0
1225,-2.955322265625,-2.84716796875,-5.935791015625,7.526717662811279,-7.251908302307129,4.809160232543945,-23.237966537475586,24.17584991455078,0.0,52.03115463256836,-51.55937957763672,32.4858512878418,-19.499500274658203,20.476436614990234,0.0
1230,-2.95654296875,-2.8486328125,-5.938720703125,7.572519302368164,-7.312977313995361,4.931297779083252,-23.238731384277344,24.174041748046875,0.0,52.06901550292969,-51.595943450927734,32.5105094909668,-19.489046096801758,20.46696662902832,0.0
1235,-2.954345703125,-2.850341796875,-5.9462890625,7.740458011627197,-7.038167953491211,4.961832046508789,-23.233043670654297,24.133588790893555,0.0,52.10771942138672,-51.631134033203125,32.53532028198242,-19.477760314941406,20.458606719970703,0.0
1240,-2.958740234375,-2.847900390625,-5.941162109375,7.893129825592041,-7.541984558105469,5.038167953491211,-23.223485946655273,24.183820724487305,0.0,52.147186279296875,-51.66884231567383,32.56051254272461,-19.4656982421875,20.448137283325195,0.0
1245,-2.95703125,-2.8505859375,-5.944580078125,7.496183395385742,-7.541984558105469,4.793893337249756,-23.235868453979492,24.15767478942871,0.0,52.18466567993164,-51.70655059814453,32.58448028564453,-19.455751419067383,20.437524795532227,0.0
1250,-2.95751953125,-2.85302734375,-5.94677734375,7.190839767456055,-7.328244209289551,4.793893337249756,-23.2468204498291,24.151355743408203,0.0,52.220619201660156,-51.74319076538086,32.60844802856445,-19.44744110107422,20.4279727935791,0.0
1255,-2.957763671875,-2.847412109375,-5.947509765625,7.267175674438477,-6.85496187210083,4.778625965118408,-23.203523635864258,24.158851623535156,0.0,52.256954193115234,-51.7774658203125,32.63233947753906,-19.43846893310547,20.42086410522461,0.0
1260,-2.9560546875,-2.84912109375,-5.94384765625,7.679389476776123,-7.312977313995361,4.931297779083252,-23.228607177734375,24.154808044433594,0.0,52.295352935791016,-51.814029693603516,32.65699768066406,-19.42766571044922,20.411474227905273,0.0
1265,-2.95263671875,-2.847900390625,-5.93994140625,7.312977313995361,-7.007633686065674,4.503816604614258,-23.235416412353516,24.143207550048828,0.0,52.33191680908203,-51.84906768798828,32.67951583862305,-19.418777465820312,20.403554916381836,0.0
1270,-2.953369140625,-2.847900390625,-5.953369140625,7.2366414070129395,-7.603053569793701,4.732824325561523,-23.19679832458496,24.109251022338867,0.0,52.368099212646484,-51.887081146240234,32.70317840576172,-19.41002655029297,20.39246368408203,0.0
1275,-2.95556640625,-2.84912109375,-5.94384765625,7.41984748840332,-7.068702220916748,4.56488561630249,-23.229286193847656,24.151273727416992,0.0,52.40519714355469,-51.92242431640625,32.72600173950195,-19.400632858276367,20.38437843322754,0.0
1280,-2.95849609375,-2.854248046875,-5.9384765625,7.358778476715088,-7.007633686065674,4.85496187210083,-23.27762222290039,24.18099594116211,0.0,52.44198989868164,-51.957462310791016,32.750274658203125,-19.39192771911621,20.376840591430664,0.0
1286,-2.951904296875,-2.848388671875,-5.94384765625,7.41984748840332,-7.221374034881592,4.809160232543945,-23.229045867919922,24.125789642333984,0.0,52.479087829589844,-51.993568420410156,32.77431869506836,-19.382604598999023,20.36787223815918,0.0
1291,-2.957763671875,-2.848876953125,-5.93505859375,7.2366414070129395,-6.809160232543945,4.916030406951904,-23.24907684326172,24.193273544311523,0.0,52.52250671386719,-52.034423828125,32.80381393432617,-19.367263793945312,20.354782104492188,0.0
1296,-2.9580078125,-2.852294921875,-5.944091796875,7.358778476715088,-7.267175674438477,5.022900581359863,-23.248329162597656,24.16377067565918,0.0,52.55929946899414,-52.07075881958008,32.82892990112305,-19.35857582092285,20.34603500366211,0.0
1301,-2.95458984375,-2.84912109375,-5.940673828125,7.358778476715088,-7.038167953491211,4.977099418640137,-23.239540100097656,24.153493881225586,0.0,52.596092224121094,-52.10594940185547,32.853816986083984,-19.3498592376709,20.3383846282959,0.0
1306,-2.957763671875,-2.8505859375,-5.9453125,7.053435325622559,-7.557251930236816,5.160305500030518,-23.232797622680664,24.160831451416016,0.0,52.6313591003418,-52.143733978271484,32.87961959838867,-19.3426456451416,20.328235626220703,0.0
1311,-2.956298828125,-2.849365234375,-5.940185546875,7.5877861976623535,-7.312977313995361,4.977099418640137,-23.240306854248047,24.166954040527344,0.0,52.66929626464844,-52.1802978515625,32.90450668334961,-19.332857131958008,20.31938934326172,0.0
1316,-2.95654296875,-2.845947265625,-5.953125,7.251908302307129,-7.297709941864014,5.282442569732666,-23.178852081298828,24.135648727416992,0.0,52.7055549621582,-52.2167854309082,32.9309196472168,-19.324338912963867,20.3104305267334,0.0
1321,-2.95361328125,-2.85107421875,-5.945556640625,7.5877861976623535,-7.43511438369751,4.977099418640137,-23.241451263427734,24.12940216064453,0.0,52.743492126464844,-52.25395965576172,32.955806732177734,-19.314634323120117,20.300783157348633,0.0
1326,-2.9560546875,-2.849365234375,-5.943359375,7.526717662811279,-7.2366414070129395,4.931297779083252,-23.231754302978516,24.155895233154297,0.0,52.781124114990234,-52.29014205932617,32.980464935302734,-19.305206298828125,20.2923526763916,0.0
1331,-2.9521484375,-2.84912109375,-5.94677734375,7.4809160232543945,-7.816793918609619,4.885496139526367,-23.22583770751953,24.11796760559082,0.0,52.81852722167969,-52.329227447509766,33.0048942565918,-19.296003341674805,20.280805587768555,0.0
1336,-2.96044921875,-2.853515625,-5.940185546875,7.389312744140625,-7.129770755767822,4.885496139526367,-23.26476287841797,24.191152572631836,0.0,52.855472564697266,-52.36487579345703,33.02932357788086,-19.28757095336914,20.27324676513672,0.0
1341,-2.955810546875,-2.849609375,-5.946044921875,7.251908302307129,-7.465648651123047,4.809160232543945,-23.226350784301758,24.14592742919922,0.0,52.89173126220703,-52.40220260620117,33.053367614746094,-19.279582977294922,20.26372718811035,0.0
1346,-2.9560546875,-2.852294921875,-5.939453125,7.282442569732666,-6.931297779083252,5.206106662750244,-23.26405906677246,24.1632137298584,0.0,52.92814254760742,-52.436859130859375,33.07939910888672,-19.271743774414062,20.25702667236328,0.0
1351,-2.956298828125,-2.850830078125,-5.943359375,7.129770755767822,-7.160305500030518,4.977099418640137,-23.242088317871094,24.15560531616211,0.0,52.96379089355469,-52.472660064697266,33.104286193847656,-19.264535903930664,20.249156951904297,0.0
1356,-2.95947265625,-2.8486328125,-5.943359375,7.358778476715088,-7.328244209289551,4.85496187210083,-23.22165298461914,24.18165397644043,0.0,53.00058364868164,-52.509300231933594,33.12855911254883,-19.256071090698242,20.24066925048828,0.0
1361,-2.954345703125,-2.847900390625,-5.94287109375,7.328244209289551,-7.2366414070129395,4.931297779083252,-23.224822998046875,24.147008895874023,0.0,53.03722381591797,-52.54548263549805,33.15321731567383,-19.24781608581543,20.2324275970459,0.0
1367,-2.955322265625,-2.8447265625,-5.95166015625,7.43511438369751,-7.3740458488464355,5.068702220916748,-23.175745010375977,24.132808685302734,0.0,53.074398040771484,-52.58235168457031,33.17856216430664,-19.238718032836914,20.22343635559082,0.0
1372,-2.953857421875,-2.848876953125,-5.9443359375,7.343511581420898,-7.358778476715088,5.114503860473633,-23.228519439697266,24.137819290161133,0.0,53.11845779418945,-52.626502990722656,33.20924758911133,-19.22327423095703,20.207366943359375,0.0
1377,-2.958740234375,-2.84814453125,-5.9501953125,7.404580116271973,-7.4809160232543945,4.824427604675293,-23.199993133544922,24.15703010559082,0.0,53.155479431152344,-52.66390609741211,33.233367919921875,-19.21470069885254,20.198223114013672,0.0
1382,-2.95849609375,-2.847412109375,-5.952880859375,7.282442569732666,-7.206106662750244,5.083969593048096,-23.18749237060547,24.148435592651367,0.0,53.191890716552734,-52.69993591308594,33.2587890625,-19.206684112548828,20.1904239654541,0.0
1387,-2.953369140625,-2.850830078125,-5.942626953125,7.633587837219238,-7.007633686065674,4.717557430267334,-23.24822425842285,24.13654327392578,0.0,53.23005676269531,-52.7349739074707,33.28237533569336,-19.197383880615234,20.183557510375977,0.0
1392,-2.957763671875,-2.84619140625,-5.938720703125,7.511450290679932,-7.41984748840332,4.839694499969482,-23.219223022460938,24.186309814453125,0.0,53.26761245727539,-52.772071838378906,33.30657196044922,-19.188528060913086,20.175020217895508,0.0
1397,-2.954833984375,-2.848876953125,-5.953369140625,7.72519063949585,-7.404580116271973,5.022900581359863,-23.20187759399414,24.118480682373047,0.0,53.30624008178711,-52.8090934753418,33.331687927246094,-19.17852783203125,20.16611671447754,0.0
1402,-2.95361328125,-2.84912109375,-5.947265625,6.870229244232178,-7.068702220916748,5.129770755767822,-23.22243309020996,24.12714385986328,0.0,53.34059143066406,-52.84443664550781,33.357337951660156,-19.172964096069336,20.15898323059082,0.0
1407,-2.95849609375,-2.849609375,-5.94677734375,7.114503860473633,-7.190839767456055,5.053435325622559,-23.220561981201172,24.163211822509766,0.0,53.376163482666016,-52.88039016723633,33.382606506347656,-19.16619110107422,20.151525497436523,0.0
1412,-2.95654296875,-2.84619140625,-5.951416015625,7.312977313995361,-7.358778476715088,4.992366313934326,-23.185405731201172,24.140304565429688,0.0,53.41272735595703,-52.91718292236328,33.407569885253906,-19.1582088470459,20.14310073852539,0.0
1417,-2.95166015625,-2.84716796875,-5.94580078125,7.251908302307129,-7.068702220916748,4.977099418640137,-23.215015411376953,24.12002182006836,0.0,53.4489860534668,-52.9525260925293,33.432456970214844,-19.150774002075195,20.136011123657227,0.0
1422,-2.9521484375,-2.850341796875,-5.942626953125,7.251908302307129,-7.282442569732666,4.687022686004639,-23.246366500854492,24.128389358520508,0.0,53.48524475097656,-52.98893737792969,33.45589065551758,-19.14358901977539,20.127948760986328,0.0
1427,-2.958251953125,-2.84423828125,-5.94482421875,7.175572395324707,-7.297709941864014,5.007633686065674,-23.187219619750977,24.17469596862793,0.0,53.521121978759766,-53.02542495727539,33.48093032836914,-19.136396408081055,20.120168685913086,0.0
1432,-2.95556640625,-2.848388671875,-5.944580078125,7.465648651123047,-7.312977313995361,5.114503860473633,-23.22189712524414,24.150157928466797,0.0,53.558448791503906,-53.061988830566406,33.50650405883789,-19.128034591674805,20.11217498779297,0.0
1437,-2.9541015625,-2.8466796875,-5.93798828125,7.251908302307129,-7.404580116271973,5.007633686065674,-23.22994613647461,24.161252975463867,0.0,53.59470748901367,-53.0990104675293,33.53154373168945,-19.12082862854004,20.103839874267578,0.0
1442,-2.958740234375,-2.845947265625,-5.942626953125,7.190839767456055,-7.083969593048096,4.85496187210083,-23.20514678955078,24.182270050048828,0.0,53.63066101074219,-53.134429931640625,33.555816650390625,-19.113780975341797,20.09728240966797,0.0
1448,-2.958984375,-2.849609375,-5.947509765625,7.450381755828857,-7.496183395385742,4.977099418640137,-23.21783447265625,24.164600372314453,0.0,53.667911529541016,-53.17190933227539,33.58070373535156,-19.105562210083008,20.088577270507812,0.0
1453,-2.95458984375,-2.84619140625,-5.949951171875,7.129770755767822,-7.160305500030518,4.916030406951904,-23.19221305847168,24.13045883178711,0.0,53.710689544677734,-53.21487045288086,33.610198974609375,-19.091793060302734,20.074312210083008,0.0
1458,-2.956298828125,-2.84912109375,-5.94482421875,7.465648651123047,-7.160305500030518,5.175572395324707,-23.22553062438965,24.153717041015625,0.0,53.748016357421875,-53.25067138671875,33.636077880859375,-19.083744049072266,20.067398071289062,0.0
1463,-2.958740234375,-2.84716796875,-5.936279296875,7.404580116271973,-7.358778476715088,4.671755790710449,-23.23182487487793,24.199169158935547,0.0,53.785037994384766,-53.2874641418457,33.6594352722168,-19.07607650756836,20.059844970703125,0.0
1468,-2.957763671875,-2.85009765625,-5.9443359375,7.114503860473633,-7.648854732513428,5.14503812789917,-23.23197364807129,24.16437530517578,0.0,53.82061004638672,-53.32571029663086,33.68516159057617,-19.06988525390625,20.050640106201172,0.0
1473,-2.953857421875,-2.852294921875,-5.949951171875,7.4809160232543945,-7.206106662750244,4.931297779083252,-23.237693786621094,24.116619110107422,0.0,53.85801315307617,-53.36174011230469,33.70981979370117,-19.061935424804688,20.04334259033203,0.0
1478,-2.955078125,-2.84814453125,-5.953369140625,7.5877861976623535,-7.267175674438477,4.946564674377441,-23.196205139160156,24.12127113342285,0.0,53.89595031738281,-53.398075103759766,33.734554290771484,-19.053199768066406,20.03580665588379,0.0
1483,-2.95458984375,-2.848876953125,-5.9482421875,7.755725383758545,-7.297709941864014,5.129770755767822,-23.216562271118164,24.131696701049805,0.0,53.934730529785156,-53.43456268310547,33.76020431518555,-19.04381561279297,20.028223037719727,0.0
1488,-2.9580078125,-2.84912109375,-5.94287109375,7.2366414070129395,-7.664122104644775,4.656488418579102,-23.228620529174805,24.17180061340332,0.0,53.97091293334961,-53.47288513183594,33.783485412597656,-19.037137985229492,20.019134521484375,0.0
1493,-2.9560546875,-2.84716796875,-5.943603515625,7.206106662750244,-7.404580116271973,4.549618244171143,-23.21505355834961,24.158262252807617,0.0,54.00694274902344,-53.50990676879883,33.80623245239258,-19.03054428100586,20.01128387451172,0.0
1498,-2.956298828125,-2.849853515625,-5.950927734375,7.526717662811279,-7.022900581359863,4.931297779083252,-23.21378517150879,24.134841918945312,0.0,54.04457473754883,-53.545021057128906,33.83089065551758,-19.022375106811523,20.005199432373047,0.0
1503,-2.95654296875,-2.850341796875,-5.93896484375,6.977099418640137,-7.572519302368164,4.885496139526367,-23.250507354736328,24.170923233032227,0.0,54.07946014404297,-53.582881927490234,33.85531997680664,-19.017229080200195,19.996662139892578,0.0
1508,-2.956298828125,-2.85009765625,-5.948974609375,7.4809160232543945,-7.206106662750244,4.809160232543945,-23.221027374267578,24.140209197998047,0.0,54.11686325073242,-53.61891174316406,33.879364013671875,-19.00939178466797,19.989770889282227,0.0
1513,-2.954833984375,-2.849609375,-5.94677734375,7.358778476715088,-7.389312744140625,4.977099418640137,-23.22566032409668,24.136720657348633,0.0,54.153656005859375,-53.65585708618164,33.90425109863281,-19.002229690551758,19.98197364807129,0.0
1518,-2.958740234375,-2.847900390625,-5.94970703125,7.282442569732666,-7.2366414070129395,5.14503812789917,-23.1995792388916,24.15880012512207,0.0,54.190067291259766,-53.692039489746094,33.92997741699219,-18.995298385620117,19.975126266479492,0.0
1523,-2.957275390625,-2.846435546875,-5.943603515625,7.251908302307129,-7.633587837219238,5.099236488342285,-23.2080135345459,24.168123245239258,0.0,54.22632598876953,-53.73020553588867,33.955474853515625,-18.98860740661621,19.966402053833008,0.0
1528,-2.95703125,-2.85009765625,-5.9453125,7.4809160232543945,-7.160305500030518,4.870229244232178,-23.230260848999023,24.156217575073242,0.0,54.263729095458984,-53.76600646972656,33.979827880859375,-18.980960845947266,19.95998764038086,0.0
1534,-2.953125,-2.84716796875,-5.9443359375,7.190839767456055,-7.43511438369751,5.007633686065674,-23.21708106994629,24.134910583496094,0.0,54.3068733215332,-53.81061553955078,34.00987243652344,-18.967639923095703,19.94478416442871,0.0
1539,-2.959228515625,-2.85205078125,-5.94580078125,7.221374034881592,-7.465648651123047,4.885496139526367,-23.240060806274414,24.16794204711914,0.0,54.342979431152344,-53.84794235229492,34.0343017578125,-18.9615421295166,19.937129974365234,0.0
1544,-2.95751953125,-2.8515625,-5.94384765625,7.328244209289551,-7.267175674438477,5.160305500030518,-23.244356155395508,24.1619815826416,0.0,54.37961959838867,-53.88427734375,34.06010437011719,-18.954965591430664,19.930456161499023,0.0
1549,-2.95654296875,-2.848876953125,-5.942138671875,7.3740458488464355,-7.603053569793701,4.778625965118408,-23.230934143066406,24.163686752319336,0.0,54.41648864746094,-53.92229080200195,34.0839958190918,-18.948097229003906,19.92215347290039,0.0
1554,-2.9599609375,-2.8505859375,-5.9453125,7.496183395385742,-7.282442569732666,4.687022686004639,-23.229736328125,24.17672348022461,0.0,54.4539680480957,-53.958702087402344,34.10742950439453,-18.940643310546875,19.915573120117188,0.0
1559,-2.957275390625,-2.845458984375,-5.941650390625,7.2366414070129395,-7.114503860473633,4.259541988372803,-23.20635986328125,24.175216674804688,0.0,54.490150451660156,-53.9942741394043,34.128726959228516,-18.934350967407227,19.90984344482422,0.0
1564,-2.957275390625,-2.84619140625,-5.9462890625,7.4809160232543945,-7.14503812789917,5.068702220916748,-23.198720932006836,24.160602569580078,0.0,54.52755355834961,-54.029998779296875,34.15407180786133,-18.926816940307617,19.90388298034668,0.0
1569,-2.9541015625,-2.845947265625,-5.951904296875,7.526717662811279,-7.297709941864014,4.885496139526367,-23.185649871826172,24.121559143066406,0.0,54.565185546875,-54.06648635864258,34.17850112915039,-18.91900062561035,19.89691734313965,0.0
1574,-2.955810546875,-2.851318359375,-5.951171875,7.282442569732666,-7.14503812789917,4.992366313934326,-23.22444725036621,24.12854766845703,0.0,54.60159683227539,-54.102210998535156,34.20346450805664,-18.912704467773438,19.890790939331055,0.0
1579,-2.959228515625,-2.84716796875,-5.9482421875,7.297709941864014,-7.083969593048096,5.038167953491211,-23.197660446166992,24.167644500732422,0.0,54.638084411621094,-54.137630462646484,34.22865676879883,-18.906169891357422,19.885263442993164,0.0
1584,-2.9560546875,-2.847900390625,-5.93896484375,7.450381755828857,-7.083969593048096,5.053435325622559,-23.233386993408203,24.170820236206055,0.0,54.67533493041992,-54.17304992675781,34.25392532348633,-18.899154663085938,19.879779815673828,0.0
1589,-2.95703125,-2.84765625,-5.945068359375,7.358778476715088,-7.297709941864014,4.778625965118408,-23.213151931762695,24.160356521606445,0.0,54.712127685546875,-54.209537506103516,34.27781677246094,-18.892484664916992,19.87318229675293,0.0
1594,-2.955810546875,-2.851318359375,-5.945556640625,7.358778476715088,-7.190839767456055,4.85496187210083,-23.240169525146484,24.144960403442383,0.0,54.74892044067383,-54.24549102783203,34.30208969116211,-18.886032104492188,19.867040634155273,0.0
1599,-2.956787109375,-2.8466796875,-5.951904296875,7.4809160232543945,-7.068702220916748,4.793893337249756,-23.187259674072266,24.13995933532715,0.0,54.78632354736328,-54.28083419799805,34.32605743408203,-18.87863540649414,19.861495971679688,0.0
1604,-2.960205078125,-2.8486328125,-5.948486328125,7.43511438369751,-7.053435325622559,4.58015251159668,-23.206289291381836,24.171937942504883,0.0,54.8234977722168,-54.31610107421875,34.34895706176758,-18.871633529663086,19.856271743774414,0.0
1609,-2.9599609375,-2.849609375,-5.94580078125,7.572519302368164,-7.4809160232543945,5.114503860473633,-23.221256256103516,24.176664352416992,0.0,54.861358642578125,-54.3535041809082,34.37453079223633,-18.864086151123047,19.848976135253906,0.0
1615,-2.9580078125,-2.848388671875,-5.94384765625,7.618320465087891,-7.297709941864014,4.671755790710449,-23.22054672241211,24.169967651367188,0.0,54.90707015991211,-54.39728927612305,34.40256118774414,-18.848861694335938,19.83541488647461,0.0
1620,-2.955810546875,-2.849853515625,-5.945068359375,7.4809160232543945,-7.251908302307129,5.129770755767822,-23.230865478515625,24.148441314697266,0.0,54.94447326660156,-54.43354797363281,34.4282112121582,-18.842044830322266,19.82925796508789,0.0
1625,-2.956787109375,-2.853271484375,-5.943603515625,7.389312744140625,-7.404580116271973,4.870229244232178,-23.258512496948242,24.154996871948242,0.0,54.98141860961914,-54.4705696105957,34.45256423950195,-18.835905075073242,19.82241439819336,0.0
1630,-2.956787109375,-2.84912109375,-5.94677734375,7.770992279052734,-7.251908302307129,4.641221523284912,-23.219383239746094,24.151535034179688,0.0,55.0202751159668,-54.50682830810547,34.47576904296875,-18.827625274658203,19.81633758544922,0.0
1635,-2.95361328125,-2.846435546875,-5.94677734375,7.450381755828857,-7.496183395385742,4.824427604675293,-23.204227447509766,24.13233184814453,0.0,55.057525634765625,-54.544307708740234,34.4998893737793,-18.820873260498047,19.80893898010254,0.0
1640,-2.957275390625,-2.84912109375,-5.9462890625,6.900763511657715,-7.343511581420898,4.900763511657715,-23.22007179260254,24.156496047973633,0.0,55.0920295715332,-54.581024169921875,34.52439498901367,-18.816991806030273,19.802501678466797,0.0
1645,-2.95849609375,-2.8505859375,-5.9453125,7.679389476776123,-7.251908302307129,4.503816604614258,-23.23177719116211,24.16613006591797,0.0,55.130428314208984,-54.61728286743164,34.546913146972656,-18.809335708618164,19.796615600585938,0.0
1650,-2.956298828125,-2.85107421875,-5.9501953125,7.160305500030518,-7.251908302307129,4.610687255859375,-23.22472381591797,24.13527488708496,0.0,55.166229248046875,-54.653541564941406,34.56996536254883,-18.80424690246582,19.790542602539062,0.0
1655,-2.95556640625,-2.848876953125,-5.9462890625,7.267175674438477,-7.2366414070129395,5.206106662750244,-23.220670700073242,24.144474029541016,0.0,55.20256423950195,-54.68972396850586,34.59599685668945,-18.79861831665039,19.784635543823242,0.0
1660,-2.9541015625,-2.84716796875,-5.947265625,7.190839767456055,-7.328244209289551,4.977099418640137,-23.20751953125,24.133411407470703,0.0,55.23851776123047,-54.72636413574219,34.62088394165039,-18.793302536010742,19.778221130371094,0.0
1665,-2.95654296875,-2.8525390625,-5.94677734375,7.343511581420898,-7.404580116271973,5.206106662750244,-23.244625091552734,24.144977569580078,0.0,55.27523422241211,-54.76338577270508,34.646915435791016,-18.787504196166992,19.77153778076172,0.0
1670,-2.95703125,-2.84912109375,-5.947265625,7.14503812789917,-7.618320465087891,4.992366313934326,-23.21767807006836,24.151872634887695,0.0,55.31095886230469,-54.801475524902344,34.671878814697266,-18.78253173828125,19.763872146606445,0.0
1675,-2.95556640625,-2.8515625,-5.944091796875,7.389312744140625,-7.496183395385742,4.7633585929870605,-23.24639320373535,24.14713478088379,0.0,55.347904205322266,-54.83895492553711,34.69569396972656,-18.77656364440918,19.756818771362305,0.0
1680,-2.956298828125,-2.847412109375,-5.95361328125,7.496183395385742,-7.526717662811279,4.7633585929870605,-23.188495635986328,24.130407333374023,0.0,55.38538360595703,-54.8765869140625,34.71950912475586,-18.76969337463379,19.74953269958496,0.0
1685,-2.953369140625,-2.845458984375,-5.949951171875,7.3740458488464355,-7.114503860473633,5.038167953491211,-23.188570022583008,24.122650146484375,0.0,55.4222526550293,-54.91215896606445,34.74470138549805,-18.76346206665039,19.74427604675293,0.0
1690,-2.956787109375,-2.847412109375,-5.93994140625,7.404580116271973,-7.572519302368164,4.732824325561523,-23.2260684967041,24.173946380615234,0.0,55.45927429199219,-54.95001983642578,34.76836395263672,-18.757366180419922,19.737119674682617,0.0
1696,-2.95556640625,-2.85205078125,-5.94482421875,7.603053569793701,-7.4809160232543945,5.038167953491211,-23.24789810180664,24.14430809020996,0.0,55.5048942565918,-54.994903564453125,34.79859161376953,-18.743000030517578,19.7229061126709,0.0
1701,-2.953857421875,-2.849609375,-5.938720703125,7.43511438369751,-7.312977313995361,5.053435325622559,-23.24959945678711,24.153223037719727,0.0,55.54206848144531,-55.03146743774414,34.82386016845703,-18.73711395263672,19.717100143432617,0.0
1706,-2.95703125,-2.85107421875,-5.945556640625,7.099236488342285,-7.206106662750244,5.175572395324707,-23.236690521240234,24.154132843017578,0.0,55.57756423950195,-55.06749725341797,34.84973907470703,-18.732831954956055,19.71185874938965,0.0
1711,-2.95703125,-2.848388671875,-5.9423828125,7.41984748840332,-7.6946563720703125,5.14503812789917,-23.226009368896484,24.167190551757812,0.0,55.614662170410156,-55.10597229003906,34.875465393066406,-18.726900100708008,19.704301834106445,0.0
1716,-2.958740234375,-2.848388671875,-5.950927734375,7.221374034881592,-6.992366313934326,4.839694499969482,-23.199724197387695,24.1545467376709,0.0,55.6507682800293,-55.140933990478516,34.899662017822266,-18.721799850463867,19.700183868408203,0.0
1721,-2.95703125,-2.8505859375,-5.9443359375,7.3740458488464355,-7.114503860473633,4.656488418579102,-23.236553192138672,24.158390045166016,0.0,55.68763732910156,-55.17650604248047,34.922943115234375,-18.716215133666992,19.695499420166016,0.0
1726,-2.957763671875,-2.8505859375,-5.94970703125,7.175572395324707,-7.450381755828857,4.916030406951904,-23.220497131347656,24.147977828979492,0.0,55.723514556884766,-55.2137565612793,34.94752502441406,-18.711530685424805,19.6890926361084,0.0
1731,-2.954833984375,-2.848388671875,-5.945556640625,7.770992279052734,-7.099236488342285,4.671755790710449,-23.220182418823242,24.142000198364258,0.0,55.76237106323242,-55.24925231933594,34.970882415771484,-18.70390510559082,19.684419631958008,0.0
1736,-2.95849609375,-2.846923828125,-5.939453125,7.267175674438477,-7.267175674438477,4.931297779083252,-23.221492767333984,24.188434600830078,0.0,55.7987060546875,-55.285587310791016,34.995540618896484,-18.698829650878906,19.679250717163086,0.0
1741,-2.954345703125,-2.848876953125,-5.952880859375,7.328244209289551,-7.541984558105469,4.885496139526367,-23.203922271728516,24.116376876831055,0.0,55.83534622192383,-55.32329559326172,35.01996994018555,-18.693349838256836,19.672243118286133,0.0
1746,-2.95703125,-2.84765625,-5.9423828125,7.511450290679932,-7.465648651123047,4.534351348876953,-23.220670700073242,24.1682186126709,0.0,55.872901916503906,-55.36062240600586,35.042640686035156,-18.68709945678711,19.666006088256836,0.0
1751,-2.9541015625,-2.85107421875,-5.942626953125,7.954198360443115,-7.038167953491211,4.7633585929870605,-23.24898338317871,24.141502380371094,0.0,55.91267395019531,-55.39581298828125,35.06645584106445,-18.678876876831055,19.661739349365234,0.0
1756,-2.9580078125,-2.84814453125,-5.944091796875,7.251908302307129,-7.267175674438477,5.221374034881592,-23.21808433532715,24.16959571838379,0.0,55.94893264770508,-55.43214797973633,35.09256362915039,-18.673973083496094,19.656543731689453,0.0
1761,-2.95751953125,-2.849365234375,-5.946533203125,7.389312744140625,-7.175572395324707,5.022900581359863,-23.220827102661133,24.15720558166504,0.0,55.985877990722656,-55.46802520751953,35.117679595947266,-18.668424606323242,19.65174102783203,0.0
1766,-2.95703125,-2.854248046875,-5.953857421875,7.267175674438477,-7.282442569732666,5.007633686065674,-23.236562728881836,24.125429153442383,0.0,56.022212982177734,-55.50443649291992,35.14271926879883,-18.663618087768555,19.646211624145508,0.0
1771,-2.9580078125,-2.849609375,-5.94384765625,7.43511438369751,-7.297709941864014,5.114503860473633,-23.22944450378418,24.168254852294922,0.0,56.05938720703125,-55.540924072265625,35.16829299926758,-18.657947540283203,19.64092254638672,0.0
1777,-2.955322265625,-2.849609375,-5.948486328125,7.43511438369751,-7.068702220916748,5.022900581359863,-23.220195770263672,24.135255813598633,0.0,56.10399627685547,-55.583335876464844,35.198429107666016,-18.64494514465332,19.629636764526367,0.0
1782,-2.959716796875,-2.8466796875,-5.9462890625,7.496183395385742,-7.526717662811279,4.534351348876953,-23.198883056640625,24.17757797241211,0.0,56.141475677490234,-55.620967864990234,35.221099853515625,-18.638952255249023,19.623451232910156,0.0
1787,-2.955322265625,-2.851318359375,-5.9501953125,7.43511438369751,-7.328244209289551,4.656488418579102,-23.227859497070312,24.12786865234375,0.0,56.17864990234375,-55.65760803222656,35.244380950927734,-18.63348960876465,19.617938995361328,0.0
1792,-2.95654296875,-2.849609375,-5.9384765625,7.022900581359863,-7.297709941864014,4.687022686004639,-23.246536254882812,24.173383712768555,0.0,56.21376419067383,-55.694095611572266,35.26781463623047,-18.630226135253906,19.6129150390625,0.0
1797,-2.954345703125,-2.850341796875,-5.950927734375,7.496183395385742,-7.312977313995361,5.083969593048096,-23.220054626464844,24.120033264160156,0.0,56.251243591308594,-55.73065948486328,35.293235778808594,-18.624439239501953,19.607471466064453,0.0
1802,-2.954345703125,-2.847412109375,-5.94140625,7.297709941864014,-7.022900581359863,4.7633585929870605,-23.22536849975586,24.151981353759766,0.0,56.2877311706543,-55.76577377319336,35.31705093383789,-18.619701385498047,19.603713989257812,0.0
1807,-2.954345703125,-2.846435546875,-5.945068359375,7.43511438369751,-7.282442569732666,4.916030406951904,-23.207992553710938,24.14263153076172,0.0,56.32490539550781,-55.80218505859375,35.34163284301758,-18.61418342590332,19.598617553710938,0.0
1812,-2.95751953125,-2.85107421875,-5.945068359375,7.129770755767822,-7.664122104644775,5.007633686065674,-23.23737907409668,24.159093856811523,0.0,56.36055374145508,-55.84050750732422,35.36667251586914,-18.610408782958984,19.591758728027344,0.0
1817,-2.96142578125,-2.851318359375,-5.946044921875,7.526717662811279,-7.740458011627197,4.809160232543945,-23.230979919433594,24.184144973754883,0.0,56.39818572998047,-55.87921142578125,35.390716552734375,-18.604631423950195,19.584728240966797,0.0
1822,-2.9560546875,-2.851806640625,-5.935302734375,7.450381755828857,-7.114503860473633,5.389312744140625,-23.272146224975586,24.176057815551758,0.0,56.4354362487793,-55.9147834777832,35.41766357421875,-18.59954261779785,19.580785751342773,0.0
1827,-2.955322265625,-2.851318359375,-5.940673828125,7.465648651123047,-7.389312744140625,4.549618244171143,-23.25453758239746,24.155712127685547,0.0,56.47276306152344,-55.95172882080078,35.44041061401367,-18.594280242919922,19.575353622436523,0.0
1832,-2.953125,-2.84912109375,-5.940185546875,7.526717662811279,-7.297709941864014,4.946564674377441,-23.242952346801758,24.144315719604492,0.0,56.51039505004883,-55.988216400146484,35.465145111083984,-18.588659286499023,19.570323944091797,0.0
1837,-2.953125,-2.850341796875,-5.94970703125,7.526717662811279,-7.251908302307129,4.931297779083252,-23.225168228149414,24.11476707458496,0.0,56.54802703857422,-56.02447509765625,35.489803314208984,-18.582942962646484,19.565345764160156,0.0
1842,-2.953369140625,-2.846435546875,-5.952392578125,7.664122104644775,-7.328244209289551,4.931297779083252,-23.188859939575195,24.114151000976562,0.0,56.58634948730469,-56.06111526489258,35.514461517333984,-18.576324462890625,19.56000518798828,0.0
1847,-2.951416015625,-2.845703125,-5.946044921875,7.603053569793701,-7.038167953491211,4.595419883728027,-23.203990936279297,24.119590759277344,0.0,56.62436294555664,-56.09630584716797,35.537437438964844,-18.570146560668945,19.556167602539062,0.0
1852,-2.95556640625,-2.848876953125,-5.948974609375,7.068702220916748,-7.343511581420898,4.687022686004639,-23.213153839111328,24.136621475219727,0.0,56.659706115722656,-56.13302230834961,35.56087112426758,-18.566715240478516,19.55094337463379,0.0
1858,-2.960205078125,-2.84716796875,-5.950927734375,7.557251930236816,-7.221374034881592,4.839694499969482,-23.188796997070312,24.166845321655273,0.0,56.69749069213867,-56.16912841796875,35.58506774902344,-18.56070327758789,19.546558380126953,0.0
1863,-2.95751953125,-2.848388671875,-5.94775390625,7.3740458488464355,-7.526717662811279,5.175572395324707,-23.210296630859375,24.15500259399414,0.0,56.74173355102539,-56.214290618896484,35.616119384765625,-18.54854393005371,19.5332088470459,0.0
1868,-2.953857421875,-2.850830078125,-5.947021484375,7.664122104644775,-7.114503860473633,4.870229244232178,-23.235227584838867,24.127229690551758,0.0,56.78005599975586,-56.24986267089844,35.640472412109375,-18.542510986328125,19.529272079467773,0.0
1873,-2.955078125,-2.851318359375,-5.94873046875,7.312977313995361,-7.648854732513428,4.900763511657715,-23.2322998046875,24.13038444519043,0.0,56.816619873046875,-56.288108825683594,35.66497802734375,-18.53822898864746,19.52271842956543,0.0
1878,-2.955810546875,-2.850830078125,-5.94287109375,7.404580116271973,-7.43511438369751,4.58015251159668,-23.244136810302734,24.153501510620117,0.0,56.853641510009766,-56.32528305053711,35.6878776550293,-18.533592224121094,19.51741600036621,0.0
1883,-2.9599609375,-2.850830078125,-5.94384765625,7.190839767456055,-7.648854732513428,4.5190839767456055,-23.235614776611328,24.1806697845459,0.0,56.88959503173828,-56.363529205322266,35.710472106933594,-18.529979705810547,19.511262893676758,0.0
1888,-2.95556640625,-2.8525390625,-5.952880859375,7.43511438369751,-7.450381755828857,4.992366313934326,-23.228893280029297,24.12008285522461,0.0,56.9267692565918,-56.400779724121094,35.735435485839844,-18.52511978149414,19.505712509155273,0.0
1893,-2.9580078125,-2.845458984375,-5.9384765625,7.404580116271973,-7.358778476715088,4.992366313934326,-23.214223861694336,24.189823150634766,0.0,56.96379089355469,-56.43757247924805,35.760398864746094,-18.52033233642578,19.50111961364746,0.0
1898,-2.95849609375,-2.846923828125,-5.939697265625,7.557251930236816,-7.053435325622559,4.809160232543945,-23.220808029174805,24.187719345092773,0.0,57.0015754699707,-56.47283935546875,35.78444290161133,-18.514854431152344,19.498048782348633,0.0
1903,-2.954345703125,-2.84814453125,-5.951904296875,7.2366414070129395,-7.175572395324707,5.083969593048096,-23.201318740844727,24.120254516601562,0.0,57.037757873535156,-56.50871658325195,35.80986404418945,-18.510862350463867,19.493921279907227,0.0
1908,-2.95654296875,-2.85302734375,-5.94384765625,7.389312744140625,-7.618320465087891,4.6259541511535645,-23.256391525268555,24.15285873413086,0.0,57.074703216552734,-56.54680633544922,35.83299255371094,-18.506502151489258,19.487834930419922,0.0
1913,-2.957763671875,-2.846435546875,-5.94482421875,7.190839767456055,-7.175572395324707,5.068702220916748,-23.20391845703125,24.168081283569336,0.0,57.11065673828125,-56.58268356323242,35.85833740234375,-18.502790451049805,19.48408317565918,0.0
1918,-2.958984375,-2.8486328125,-5.946533203125,7.633587837219238,-7.43511438369751,5.053435325622559,-23.213451385498047,24.168827056884766,0.0,57.14882278442383,-56.61985778808594,35.88360595703125,-18.496959686279297,19.479061126708984,0.0
1923,-2.95751953125,-2.84912109375,-5.947509765625,7.786259651184082,-7.572519302368164,4.610687255859375,-23.2163143157959,24.15468978881836,0.0,57.1877555847168,-56.657718658447266,35.90665817260742,-18.490419387817383,19.473283767700195,0.0
1928,-2.95703125,-2.84814453125,-5.950927734375,7.41984748840332,-7.114503860473633,4.748091697692871,-23.200321197509766,24.14253044128418,0.0,57.224853515625,-56.69329071044922,35.930397033691406,-18.48562240600586,19.469728469848633,0.0
1933,-2.958740234375,-2.84814453125,-5.94970703125,7.541984558105469,-7.022900581359863,5.068702220916748,-23.201358795166016,24.158458709716797,0.0,57.2625617980957,-56.7284049987793,35.95574188232422,-18.480249404907227,19.46674919128418,0.0
1939,-2.952880859375,-2.843017578125,-5.9453125,7.114503860473633,-7.114503860473633,4.702290058135986,-23.18442153930664,24.136098861694336,0.0,57.298133850097656,-56.76397705078125,35.979251861572266,-18.476911544799805,19.46317481994629,0.0
1944,-2.95751953125,-2.8486328125,-5.95166015625,7.770992279052734,-7.541984558105469,5.175572395324707,-23.20115089416504,24.14323616027832,0.0,57.34476089477539,-56.80923080444336,36.01030349731445,-18.462814331054688,19.45013999938965,0.0
1949,-2.957275390625,-2.845947265625,-5.9521484375,7.4809160232543945,-7.190839767456055,4.946564674377441,-23.180564880371094,24.143800735473633,0.0,57.382164001464844,-56.845184326171875,36.035037994384766,-18.45781898498535,19.446422576904297,0.0
1954,-2.958984375,-2.84521484375,-5.9501953125,7.450381755828857,-7.389312744140625,4.748091697692871,-23.17831039428711,24.16289710998535,0.0,57.41941452026367,-56.88212966918945,36.05877685546875,-18.45298194885254,19.441862106323242,0.0
1959,-2.95654296875,-2.847900390625,-5.945556640625,7.4809160232543945,-7.389312744140625,4.946564674377441,-23.214244842529297,24.155052185058594,0.0,57.456817626953125,-56.91907501220703,36.08351135253906,-18.448261260986328,19.43726921081543,0.0
1964,-2.959716796875,-2.846923828125,-5.94921875,7.572519302368164,-7.099236488342285,4.977099418640137,-23.192472457885742,24.168659210205078,0.0,57.49467849731445,-56.95457077026367,36.1083984375,-18.44295883178711,19.43423080444336,0.0
1969,-2.957275390625,-2.849853515625,-5.952880859375,7.633587837219238,-7.14503812789917,4.687022686004639,-23.206966400146484,24.13619613647461,0.0,57.53284454345703,-56.99029541015625,36.131832122802734,-18.437477111816406,19.430753707885742,0.0
1974,-2.955078125,-2.85107421875,-5.944091796875,7.3740458488464355,-7.572519302368164,4.839694499969482,-23.24351692199707,24.144287109375,0.0,57.5697135925293,-57.02815628051758,36.156028747558594,-18.43355941772461,19.425222396850586,0.0
1979,-2.958984375,-2.845947265625,-5.950439453125,7.251908302307129,-7.2366414070129395,5.068702220916748,-23.182966232299805,24.161157608032227,0.0,57.60597229003906,-57.06433868408203,36.181373596191406,-18.429853439331055,19.42150115966797,0.0
1984,-2.959716796875,-2.847900390625,-5.94677734375,7.526717662811279,-7.251908302307129,5.114503860473633,-23.20641326904297,24.174436569213867,0.0,57.64360427856445,-57.1005973815918,36.206947326660156,-18.424957275390625,19.417810440063477,0.0
1989,-2.95458984375,-2.850830078125,-5.9521484375,7.526717662811279,-7.114503860473633,4.671755790710449,-23.21985626220703,24.117551803588867,0.0,57.681236267089844,-57.13616943359375,36.23030471801758,-18.420175552368164,19.4144287109375,0.0
1994,-2.959716796875,-2.8505859375,-5.94580078125,7.465648651123047,-7.312977313995361,4.870229244232178,-23.228710174560547,24.17352867126465,0.0,57.718563079833984,-57.172733306884766,36.25465774536133,-18.41577911376953,19.41045379638672,0.0
1999,-2.95849609375,-2.848876953125,-5.951171875,7.221374034881592,-7.328244209289551,5.114503860473633,-23.20293617248535,24.151384353637695,0.0,57.754669189453125,-57.209373474121094,36.28023147583008,-18.412443161010742,19.40627098083496,0.0
2004,-2.95458984375,-2.847412109375,-5.9560546875,7.2366414070129395,-7.206106662750244,5.251908302307129,-23.184043884277344,24.110919952392578,0.0,57.79085159301758,-57.24540328979492,36.30649185180664,-18.40891456604004,19.40243911743164,0.0
2009,-2.95166015625,-2.847900390625,-5.955078125,7.389312744140625,-7.664122104644775,4.748091697692871,-23.19438934326172,24.091899871826172,0.0,57.827796936035156,-57.28372573852539,36.330230712890625,-18.40471076965332,19.396221160888672,0.0
2014,-2.955810546875,-2.85205078125,-5.947509765625,7.3740458488464355,-7.358778476715088,5.2366414070129395,-23.240034103393555,24.13822364807129,0.0,57.86466598510742,-57.320518493652344,36.356414794921875,-18.40091323852539,19.391864776611328,0.0
2020,-2.95751953125,-2.845703125,-5.9521484375,7.72519063949585,-7.664122104644775,5.053435325622559,-23.178447723388672,24.145906448364258,0.0,57.90329360961914,-57.35884094238281,36.381683349609375,-18.394969940185547,19.386066436767578,0.0
2025,-2.95654296875,-2.84814453125,-5.94384765625,7.114503860473633,-7.206106662750244,4.5190839767456055,-23.220808029174805,24.159711837768555,0.0,57.945980072021484,-57.402076721191406,36.40879821777344,-18.385406494140625,19.37560272216797,0.0
2030,-2.955810546875,-2.847412109375,-5.9384765625,7.022900581359863,-7.389312744140625,4.732824325561523,-23.231534957885742,24.17116928100586,0.0,57.98109436035156,-57.439022064208984,36.43246078491211,-18.38349151611328,19.371522903442383,0.0
2035,-2.955078125,-2.8505859375,-5.939697265625,7.343511581420898,-7.312977313995361,4.809160232543945,-23.252277374267578,24.1578311920166,0.0,58.0178108215332,-57.4755859375,36.456504821777344,-18.380126953125,19.36775016784668,0.0
2040,-2.956298828125,-2.85205078125,-5.947265625,7.511450290679932,-7.328244209289551,4.839694499969482,-23.24003791809082,24.142467498779297,0.0,58.05536651611328,-57.51222610473633,36.4807014465332,-18.375858306884766,19.363811492919922,0.0
2045,-2.9599609375,-2.848388671875,-5.944580078125,7.4809160232543945,-7.068702220916748,5.038167953491211,-23.215776443481445,24.18195343017578,0.0,58.092769622802734,-57.547569274902344,36.50589370727539,-18.37159538269043,19.361448287963867,0.0
2050,-2.953125,-2.844482421875,-5.944091796875,7.541984558105469,-7.572519302368164,4.732824325561523,-23.198183059692383,24.139387130737305,0.0,58.13047790527344,-57.58543014526367,36.52955627441406,-18.36693000793457,19.356300354003906,0.0
2055,-2.955810546875,-2.848876953125,-5.951416015625,7.41984748840332,-7.190839767456055,5.190839767456055,-23.20598602294922,24.131250381469727,0.0,58.16757583618164,-57.62138366699219,36.555511474609375,-18.362945556640625,19.353017807006836,0.0
2060,-2.95458984375,-2.852294921875,-5.94189453125,7.038167953491211,-7.633587837219238,4.946564674377441,-23.259254455566406,24.145465850830078,0.0,58.20276641845703,-57.659549713134766,36.58024597167969,-18.361236572265625,19.347646713256836,0.0
2065,-2.957275390625,-2.85205078125,-5.94580078125,7.083969593048096,-7.557251930236816,4.778625965118408,-23.242780685424805,24.15381622314453,0.0,58.23818588256836,-57.69733428955078,36.6041374206543,-18.359189987182617,19.342737197875977,0.0
2070,-2.95947265625,-2.8486328125,-5.950927734375,7.114503860473633,-7.496183395385742,4.977099418640137,-23.200483322143555,24.159500122070312,0.0,58.27375793457031,-57.73481369018555,36.629024505615234,-18.356708526611328,19.338193893432617,0.0
2075,-2.955810546875,-2.84814453125,-5.948486328125,7.297709941864014,-7.328244209289551,5.007633686065674,-23.208845138549805,24.140840530395508,0.0,58.310245513916016,-57.771453857421875,36.6540641784668,-18.35338020324707,19.334379196166992,0.0
2080,-2.954833984375,-2.850341796875,-5.947265625,7.450381755828857,-7.022900581359863,4.916030406951904,-23.22962760925293,24.134265899658203,0.0,58.347496032714844,-57.80656814575195,36.678646087646484,-18.349449157714844,19.332054138183594,0.0
2085,-2.957275390625,-2.845947265625,-5.949951171875,7.541984558105469,-7.2366414070129395,4.839694499969482,-23.186704635620117,24.150226593017578,0.0,58.38520431518555,-57.842750549316406,36.702842712402344,-18.344789505004883,19.32878303527832,0.0
2090,-2.957275390625,-2.8505859375,-5.943603515625,7.72519063949585,-7.3740458488464355,4.809160232543945,-23.238264083862305,24.16230010986328,0.0,58.423831939697266,-57.87961959838867,36.72688674926758,-18.3395938873291,19.324922561645508,0.0
2095,-2.952392578125,-2.84814453125,-5.942626953125,7.541984558105469,-7.160305500030518,4.931297779083252,-23.23000717163086,24.133237838745117,0.0,58.46154022216797,-57.91542053222656,36.75154495239258,-18.335277557373047,19.32194709777832,0.0
2101,-2.955810546875,-2.84619140625,-5.94970703125,7.267175674438477,-7.083969593048096,4.778625965118408,-23.191200256347656,24.140003204345703,0.0,58.49787521362305,-57.95083999633789,36.77543640136719,-18.33208465576172,19.319406509399414,0.0
2106,-2.955810546875,-2.84716796875,-5.944580078125,7.43511438369751,-7.43511438369751,4.717557430267334,-23.21265983581543,24.153636932373047,0.0,58.542484283447266,-57.99544906616211,36.803741455078125,-18.320924758911133,19.307931900024414,0.0
2111,-2.95703125,-2.849853515625,-5.94580078125,7.14503812789917,-7.038167953491211,5.099236488342285,-23.227113723754883,24.155132293701172,0.0,58.578208923339844,-58.0306396484375,36.82923889160156,-18.318756103515625,19.305892944335938,0.0
2116,-2.95849609375,-2.846435546875,-5.944091796875,7.496183395385742,-7.389312744140625,4.809160232543945,-23.20494842529297,24.175527572631836,0.0,58.61568832397461,-58.06758499145508,36.8532829284668,-18.314697265625,19.3022518157959,0.0
2121,-2.957275390625,-2.84912109375,-5.947021484375,7.526717662811279,-7.358778476715088,5.022900581359863,-23.218021392822266,24.15435218811035,0.0,58.6533203125,-58.10437774658203,36.87839889526367,-18.310592651367188,19.298633575439453,0.0
2126,-2.95849609375,-2.848388671875,-5.946044921875,7.206106662750244,-6.992366313934326,4.503816604614258,-23.21371841430664,24.167068481445312,0.0,58.68935012817383,-58.139339447021484,36.900917053222656,-18.30807113647461,19.296937942504883,0.0
2131,-2.953369140625,-2.84765625,-5.947998046875,7.465648651123047,-7.404580116271973,5.297709941864014,-23.210046768188477,24.125286102294922,0.0,58.72667694091797,-58.176361083984375,36.927406311035156,-18.304243087768555,19.29291343688965,0.0
2136,-2.95703125,-2.845947265625,-5.94873046875,7.251908302307129,-7.14503812789917,5.022900581359863,-23.190454483032227,24.15203285217285,0.0,58.762935638427734,-58.21208572387695,36.95252227783203,-18.301361083984375,19.29037857055664,0.0
2141,-2.95263671875,-2.8466796875,-5.9423828125,7.083969593048096,-7.190839767456055,4.946564674377441,-23.21967124938965,24.137773513793945,0.0,58.79835510253906,-58.24803924560547,36.977256774902344,-18.299522399902344,19.287527084350586,0.0
2146,-2.95556640625,-2.84912109375,-5.943359375,7.312977313995361,-7.70992374420166,4.839694499969482,-23.230653762817383,24.15270233154297,0.0,58.83491897583008,-58.286590576171875,37.0014533996582,-18.29662322998047,19.282209396362305,0.0
2151,-2.95703125,-2.8486328125,-5.9462890625,7.14503812789917,-7.358778476715088,4.793893337249756,-23.21685218811035,24.155414581298828,0.0,58.870643615722656,-58.32338333129883,37.025421142578125,-18.294475555419922,19.2786808013916,0.0
2156,-2.959716796875,-2.850830078125,-5.945068359375,7.450381755828857,-7.3740458488464355,5.007633686065674,-23.2325382232666,24.175331115722656,0.0,58.907894134521484,-58.360252380371094,37.05046081542969,-18.290922164916992,19.275226593017578,0.0
2161,-2.955078125,-2.85107421875,-5.940185546875,7.41984748840332,-7.465648651123047,4.992366313934326,-23.254467010498047,24.155715942382812,0.0,58.94499206542969,-58.397579193115234,37.07542419433594,-18.28768539428711,19.27120018005371,0.0
2166,-2.95751953125,-2.8525390625,-5.94970703125,7.068702220916748,-7.328244209289551,5.221374034881592,-23.235061645507812,24.143476486206055,0.0,58.9803352355957,-58.43421936035156,37.101531982421875,-18.286075592041016,19.267791748046875,0.0
2171,-2.95947265625,-2.851806640625,-5.9423828125,7.3740458488464355,-7.114503860473633,4.931297779083252,-23.247514724731445,24.180055618286133,0.0,59.01720428466797,-58.469791412353516,37.126190185546875,-18.283035278320312,19.265708923339844,0.0
2176,-2.954833984375,-2.849365234375,-5.944580078125,7.2366414070129395,-7.618320465087891,4.824427604675293,-23.23003387451172,24.14348793029785,0.0,59.05338668823242,-58.50788116455078,37.15031051635742,-18.28057289123535,19.260881423950195,0.0
2181,-2.959228515625,-2.847900390625,-5.9404296875,7.43511438369751,-7.633587837219238,4.442748069763184,-23.224855422973633,24.18950080871582,0.0,59.09056091308594,-58.54604721069336,37.172523498535156,-18.277095794677734,19.25631332397461,0.0
2187,-2.95654296875,-2.849609375,-5.947509765625,7.099236488342285,-7.206106662750244,4.56488561630249,-23.22123146057129,24.146942138671875,0.0,59.133155822753906,-58.58928298950195,37.199913024902344,-18.26832389831543,19.24654197692871,0.0
2192,-2.95556640625,-2.84716796875,-5.954833984375,7.312977313995361,-7.3740458488464355,4.7633585929870605,-23.184322357177734,24.12188720703125,0.0,59.16971969604492,-58.62615203857422,37.22372817993164,-18.26534080505371,19.242979049682617,0.0
2197,-2.954833984375,-2.84716796875,-5.947998046875,7.450381755828857,-7.3740458488464355,4.885496139526367,-23.204452514648438,24.13656997680664,0.0,59.20697021484375,-58.663021087646484,37.2481575012207,-18.261823654174805,19.239532470703125,0.0
2202,-2.9580078125,-2.850830078125,-5.944091796875,7.007633686065674,-6.992366313934326,4.946564674377441,-23.237655639648438,24.16582679748535,0.0,59.242008209228516,-58.69798278808594,37.272891998291016,-18.260746002197266,19.23819351196289,0.0
2207,-2.95751953125,-2.84814453125,-5.948486328125,7.648854732513428,-7.160305500030518,5.038167953491211,-23.20646858215332,24.153202056884766,0.0,59.28025436401367,-58.73378372192383,37.2980842590332,-18.256269454956055,19.235937118530273,0.0
2212,-2.958740234375,-2.852783203125,-5.947021484375,7.679389476776123,-7.43511438369751,4.335877895355225,-23.242658615112305,24.15981101989746,0.0,59.31865310668945,-58.770957946777344,37.31976318359375,-18.251909255981445,19.232364654541016,0.0
2217,-2.957763671875,-2.85009765625,-5.948974609375,7.3740458488464355,-7.2366414070129395,5.038167953491211,-23.218990325927734,24.150802612304688,0.0,59.35552215576172,-58.8071403503418,37.34495544433594,-18.248924255371094,19.229734420776367,0.0
2222,-2.952392578125,-2.848388671875,-5.945556640625,7.267175674438477,-7.160305500030518,5.053435325622559,-23.22357940673828,24.12432861328125,0.0,59.3918571472168,-58.84294128417969,37.37022399902344,-18.24651527404785,19.227313995361328,0.0
2227,-2.955322265625,-2.849365234375,-5.941162109375,7.4809160232543945,-7.053435325622559,4.946564674377441,-23.23893165588379,24.157024383544922,0.0,59.42926025390625,-58.87820816040039,37.39495849609375,-18.243154525756836,19.22565269470215,0.0
2232,-2.95361328125,-2.851318359375,-5.94189453125,7.358778476715088,-7.190839767456055,5.099236488342285,-23.253496170043945,24.139768600463867,0.0,59.4660530090332,-58.914161682128906,37.42045593261719,-18.24051284790039,19.223196029663086,0.0
2237,-2.95849609375,-2.850341796875,-5.949951171875,7.312977313995361,-7.496183395385742,4.748091697692871,-23.217018127441406,24.152902603149414,0.0,59.50261688232422,-58.95164108276367,37.44419479370117,-18.23786163330078,19.219318389892578,0.0
2242,-2.954345703125,-2.852294921875,-5.951904296875,7.053435325622559,-7.190839767456055,4.778625965118408,-23.23154640197754,24.11444854736328,0.0,59.53788375854492,-58.98759460449219,37.46808624267578,-18.236608505249023,19.216716766357422,0.0
2247,-2.95654296875,-2.849365234375,-5.9375,7.465648651123047,-7.099236488342285,4.778625965118408,-23.247495651245117,24.176589965820312,0.0,59.57521057128906,-59.02309036254883,37.49197769165039,-18.233415603637695,19.21500015258789,0.0
2252,-2.95068359375,-2.849365234375,-5.943115234375,7.740458011627197,-7.221374034881592,5.022900581359863,-23.239917755126953,24.11772346496582,0.0,59.613914489746094,-59.05919647216797,37.517093658447266,-18.22882080078125,19.212282180786133,0.0
2257,-2.955322265625,-2.847412109375,-5.947509765625,7.4809160232543945,-7.404580116271973,4.748091697692871,-23.206918716430664,24.141189575195312,0.0,59.65131759643555,-59.09621810913086,37.54083251953125,-18.22531509399414,19.20882225036621,0.0
2262,-2.9541015625,-2.847900390625,-5.951416015625,7.526717662811279,-7.41984748840332,4.732824325561523,-23.201244354248047,24.120256423950195,0.0,59.68894958496094,-59.13331604003906,37.56449508666992,-18.221559524536133,19.205162048339844,0.0
2268,-2.958984375,-2.85009765625,-5.95068359375,7.5877861976623535,-7.557251930236816,5.007633686065674,-23.212512969970703,24.154632568359375,0.0,59.73447799682617,-59.17866134643555,37.594539642333984,-18.210155487060547,19.19365882873535,0.0
2273,-2.95654296875,-2.848876953125,-5.9423828125,7.450381755828857,-7.648854732513428,4.56488561630249,-23.230249404907227,24.16297149658203,0.0,59.771728515625,-59.2169075012207,37.61736297607422,-18.2071590423584,19.189332962036133,0.0
2278,-2.956298828125,-2.847412109375,-5.942626953125,7.557251930236816,-7.541984558105469,4.732824325561523,-23.219226837158203,24.162546157836914,0.0,59.809513092041016,-59.254615783691406,37.64102554321289,-18.203569412231445,19.18555450439453,0.0
2283,-2.95556640625,-2.848388671875,-5.942138671875,7.496183395385742,-7.389312744140625,5.129770755767822,-23.228734970092773,24.157304763793945,0.0,59.84699249267578,-59.291561126708984,37.66667556762695,-18.200363159179688,19.18251609802246,0.0
2288,-2.9560546875,-2.84912109375,-5.9453125,7.038167953491211,-7.251908302307129,4.977099418640137,-23.224504470825195,24.150522232055664,0.0,59.88218307495117,-59.32781982421875,37.69156265258789,-18.19941520690918,19.18012809753418,0.0
2293,-2.955810546875,-2.847900390625,-5.9462890625,7.312977313995361,-7.343511581420898,4.641221523284912,-23.213214874267578,24.14760971069336,0.0,59.91874694824219,-59.36453628540039,37.71476745605469,-18.197023391723633,19.177270889282227,0.0
2298,-2.956298828125,-2.848388671875,-5.945068359375,7.404580116271973,-7.770992279052734,4.793893337249756,-23.219511032104492,24.154029846191406,0.0,59.95576858520508,-59.40339279174805,37.73873519897461,-18.19422721862793,19.172348022460938,0.0
2303,-2.95361328125,-2.850830078125,-5.942138671875,7.3740458488464355,-7.160305500030518,4.961832046508789,-23.24925422668457,24.139739990234375,0.0,59.992637634277344,-59.43919372558594,37.763545989990234,-18.191795349121094,19.170385360717773,0.0
2308,-2.95458984375,-2.846923828125,-5.94775390625,7.053435325622559,-7.358778476715088,4.977099418640137,-23.20369529724121,24.1358585357666,0.0,60.02790451049805,-59.47598648071289,37.78843307495117,-18.190656661987305,19.167415618896484,0.0
2313,-2.954345703125,-2.849853515625,-5.9453125,7.297709941864014,-7.389312744140625,4.503816604614258,-23.232219696044922,24.137128829956055,0.0,60.06439208984375,-59.51293182373047,37.810951232910156,-18.188495635986328,19.16431427001953,0.0
2318,-2.95556640625,-2.84765625,-5.946533203125,7.160305500030518,-7.343511581420898,4.610687255859375,-23.211091995239258,24.145469665527344,0.0,60.10019302368164,-59.54964828491211,37.83400344848633,-18.1868839263916,19.161510467529297,0.0
2323,-2.95654296875,-2.8505859375,-5.944580078125,7.572519302368164,-7.175572395324707,5.2366414070129395,-23.236549377441406,24.154142379760742,0.0,60.13805389404297,-59.58552551269531,37.86018753051758,-18.183399200439453,19.15961265563965,0.0
2328,-2.955078125,-2.848388671875,-5.94189453125,7.022900581359863,-7.282442569732666,4.748091697692871,-23.230098724365234,24.154483795166016,0.0,60.17316818237305,-59.6219367980957,37.88392639160156,-18.182615280151367,19.15719223022461,0.0
2333,-2.955322265625,-2.8515625,-5.952880859375,7.312977313995361,-7.664122104644775,4.900763511657715,-23.222122192382812,24.11968421936035,0.0,60.20973205566406,-59.66025924682617,37.90843200683594,-18.180334091186523,19.15264892578125,0.0
2338,-2.958740234375,-2.849609375,-5.945556640625,7.679389476776123,-6.839694499969482,5.251908302307129,-23.2236385345459,24.168550491333008,0.0,60.248130798339844,-59.6944580078125,37.9346923828125,-18.176252365112305,19.152551651000977,0.0
2343,-2.95458984375,-2.847412109375,-5.948486328125,7.206106662750244,-7.2366414070129395,5.099236488342285,-23.205204010009766,24.133033752441406,0.0,60.28416061401367,-59.73064041137695,37.96018981933594,-18.17441749572754,19.150238037109375,0.0
2349,-2.956298828125,-2.848876953125,-5.946533203125,7.41984748840332,-7.099236488342285,5.2366414070129395,-23.21896743774414,24.149059295654297,0.0,60.328678131103516,-59.77323532104492,37.99161148071289,-18.16434669494629,19.141769409179688,0.0
2354,-2.955078125,-2.85009765625,-5.942626953125,7.496183395385742,-7.43511438369751,4.900763511657715,-23.24050521850586,24.14994239807129,0.0,60.36615753173828,-59.81040954589844,38.016117095947266,-18.16147232055664,19.13873863220215,0.0
2359,-2.954345703125,-2.845703125,-5.944091796875,7.679389476776123,-7.221374034881592,5.007633686065674,-23.205385208129883,24.146516799926758,0.0,60.40455627441406,-59.84651565551758,38.04115676879883,-18.157461166381836,19.13675880432129,0.0
2364,-2.953857421875,-2.850830078125,-5.944580078125,7.129770755767822,-7.190839767456055,4.839694499969482,-23.242069244384766,24.134366989135742,0.0,60.44020462036133,-59.882469177246094,38.06535339355469,-18.156448364257812,19.13485336303711,0.0
2369,-2.95458984375,-2.846923828125,-5.950439453125,7.312977313995361,-6.85496187210083,5.114503860473633,-23.196184158325195,24.128007888793945,0.0,60.476768493652344,-59.916744232177734,38.09092712402344,-18.154211044311523,19.13457679748535,0.0
2374,-2.954833984375,-2.84716796875,-5.947998046875,7.297709941864014,-7.022900581359863,5.099236488342285,-23.204452514648438,24.13656997680664,0.0,60.51325607299805,-59.95185852050781,38.116424560546875,-18.15211296081543,19.13351821899414,0.0
2379,-2.958740234375,-2.846923828125,-5.94775390625,7.572519302368164,-7.496183395385742,4.931297779083252,-23.197925567626953,24.165884017944336,0.0,60.551116943359375,-59.98933792114258,38.141082763671875,-18.14861297607422,19.130306243896484,0.0
2384,-2.958984375,-2.849609375,-5.94091796875,7.267175674438477,-7.312977313995361,4.809160232543945,-23.236286163330078,24.183900833129883,0.0,60.58745193481445,-60.025901794433594,38.16512680053711,-18.14690589904785,19.12813949584961,0.0
2389,-2.955078125,-2.849853515625,-5.94677734375,7.4809160232543945,-7.389312744140625,4.961832046508789,-23.22709846496582,24.138145446777344,0.0,60.624855041503906,-60.06284713745117,38.189937591552734,-18.14407730102539,19.12529182434082,0.0
2394,-2.95654296875,-2.8486328125,-5.93408203125,7.099236488342285,-7.526717662811279,4.427480697631836,-23.251741409301758,24.187641143798828,0.0,60.66035079956055,-60.10047912597656,38.212074279785156,-18.14332389831543,19.122108459472656,0.0
2399,-2.95458984375,-2.844482421875,-5.947021484375,7.526717662811279,-7.358778476715088,5.007633686065674,-23.18794822692871,24.14141845703125,0.0,60.69798278808594,-60.137271881103516,38.23711395263672,-18.140012741088867,19.119461059570312,0.0
2404,-2.956787109375,-2.849853515625,-5.949462890625,7.312977313995361,-7.358778476715088,5.114503860473633,-23.217205047607422,24.142654418945312,0.0,60.73454666137695,-60.17406463623047,38.26268768310547,-18.137975692749023,19.116830825805664,0.0
2409,-2.95458984375,-2.8544921875,-5.942626953125,7.206106662750244,-7.114503860473633,5.007633686065674,-23.273210525512695,24.14023780822754,0.0,60.77057647705078,-60.20963668823242,38.28772735595703,-18.13685417175293,19.11540985107422,0.0
2414,-2.951416015625,-2.847412109375,-5.947998046875,7.251908302307129,-7.312977313995361,5.190839767456055,-23.210981369018555,24.11149024963379,0.0,60.80683517456055,-60.24620056152344,38.313682556152344,-18.135086059570312,19.112810134887695,0.0
2419,-2.956298828125,-2.846923828125,-5.942626953125,7.221374034881592,-7.358778476715088,5.007633686065674,-23.215667724609375,24.163230895996094,0.0,60.84294128417969,-60.28299331665039,38.338722229003906,-18.133506774902344,19.110342025756836,0.0
2424,-2.95263671875,-2.8525390625,-5.949462890625,7.114503860473633,-7.267175674438477,4.839694499969482,-23.242536544799805,24.108871459960938,0.0,60.87851333618164,-60.31932830810547,38.362918853759766,-18.13264274597168,19.107975006103516,0.0
2430,-2.956298828125,-2.85009765625,-5.945068359375,7.3740458488464355,-6.900763511657715,5.068702220916748,-23.231964111328125,24.15163230895996,0.0,60.92275619506836,-60.36073303222656,38.39332962036133,-18.12318992614746,19.100967407226562,0.0
2435,-2.956298828125,-2.8486328125,-5.9462890625,7.328244209289551,-7.190839767456055,4.748091697692871,-23.217872619628906,24.150115966796875,0.0,60.95939636230469,-60.39668655395508,38.41706848144531,-18.12125015258789,19.099403381347656,0.0
2440,-2.95556640625,-2.844970703125,-5.947509765625,7.282442569732666,-7.312977313995361,4.687022686004639,-23.188785552978516,24.146373748779297,0.0,60.99580764770508,-60.433250427246094,38.44050216674805,-18.119346618652344,19.09720802307129,0.0
2445,-2.954345703125,-2.848876953125,-5.948486328125,7.206106662750244,-7.572519302368164,5.038167953491211,-23.216217041015625,24.12921714782715,0.0,61.031837463378906,-60.47111129760742,38.465694427490234,-18.118013381958008,19.093616485595703,0.0
2450,-2.954345703125,-2.846923828125,-5.947021484375,6.870229244232178,-7.4809160232543945,4.748091697692871,-23.206085205078125,24.136234283447266,0.0,61.06618881225586,-60.508514404296875,38.48943328857422,-18.1182804107666,19.09054183959961,0.0
2455,-2.95458984375,-2.848388671875,-5.94775390625,7.664122104644775,-7.633587837219238,4.671755790710449,-23.214370727539062,24.133808135986328,0.0,61.10451126098633,-60.54668045043945,38.51279067993164,-18.11465072631836,19.086706161499023,0.0
2460,-2.958251953125,-2.84765625,-5.942626953125,7.343511581420898,-7.206106662750244,4.870229244232178,-23.218286514282227,24.17633819580078,0.0,61.14122772216797,-60.58271026611328,38.53714370727539,-18.112655639648438,19.08530044555664,0.0
2465,-2.951416015625,-2.84765625,-5.951416015625,7.450381755828857,-7.2366414070129395,4.931297779083252,-23.20319366455078,24.101165771484375,0.0,61.1784782409668,-60.618892669677734,38.56180191040039,-18.110034942626953,19.083236694335938,0.0
2470,-2.958251953125,-2.845703125,-5.948974609375,7.404580116271973,-7.053435325622559,4.442748069763184,-23.186296463012695,24.160490036010742,0.0,61.21549987792969,-60.65415954589844,38.584014892578125,-18.10753631591797,19.082490921020508,0.0
