Time,Acc_low_X,Acc_low_Y,Acc_low_Z,Gyro_low_X,Gyro_low_Y,Gyro_low_Z,Acc_X,Acc_Y,Acc_Z,Gyro_X,Gyro_Y,Gyro_Z,Euler_X,Euler_Y,Euler_Z
0,-3.93017578125,-2.830078125,-4.9140625,7.328244209289551,-7.755725383758545,4.427480697631836,-24.216373443603516,34.724342346191406,0.0,65.62442779541016,-69.45252227783203,39.64809036254883,-23.59058380126953,33.99869155883789,0.0
5,-3.929443359375,-2.833251953125,-4.915771484375,7.43511438369751,-7.41984748840332,4.396946430206299,-24.237415313720703,34.70484924316406,0.0,65.66160583496094,-69.4896240234375,39.670074462890625,-23.894224166870117,34.331932067871094,0.0
10,-3.928955078125,-2.833251953125,-4.923095703125,7.312977313995361,-7.43511438369751,4.610687255859375,-24.218963623046875,34.67154312133789,0.0,65.69817352294922,-69.52680206298828,39.6931266784668,-23.977821350097656,34.42007064819336,0.0
15,-3.9267578125,-2.833251953125,-4.914306640625,7.4809160232543945,-7.007633686065674,4.702290058135986,-24.247032165527344,34.6925163269043,0.0,65.73558044433594,-69.56184387207031,39.716636657714844,-24.016948699951172,34.4617805480957,0.0
20,-3.928955078125,-2.830810546875,-4.91357421875,7.511450290679932,-7.206106662750244,4.702290058135986,-24.22581672668457,34.71628189086914,0.0,65.77313995361328,-69.5978775024414,39.74014663696289,-24.02861976623535,34.48379135131836,0.0
25,-3.92919921875,-2.8330078125,-4.9169921875,7.3740458488464355,-7.022900581359863,4.595419883728027,-24.232837677001953,34.698760986328125,0.0,65.81001281738281,-69.63299560546875,39.76312255859375,-24.03190040588379,34.490325927734375,0.0
30,-3.9267578125,-2.831298828125,-4.92041015625,7.496183395385742,-6.946564674377441,5.083969593048096,-24.215993881225586,34.67213439941406,0.0,65.84749603271484,-69.66773223876953,39.788543701171875,-24.026060104370117,34.486515045166016,0.0
35,-3.9267578125,-2.833984375,-4.9140625,7.526717662811279,-7.3740458488464355,4.977099418640137,-24.25322914123535,34.69178771972656,0.0,65.8851318359375,-69.70460510253906,39.81343078613281,-24.021522521972656,34.47991180419922,0.0
40,-3.9267578125,-2.83447265625,-4.926025390625,7.312977313995361,-7.083969593048096,4.916030406951904,-24.225065231323242,34.641700744628906,0.0,65.92169952392578,-69.74002838134766,39.8380126953125,-24.011642456054688,34.466407775878906,0.0
45,-3.9267578125,-2.831787109375,-4.919677734375,7.618320465087891,-7.221374034881592,4.702290058135986,-24.221637725830078,34.673980712890625,0.0,65.95979309082031,-69.77613830566406,39.86152267456055,-23.99837303161621,34.45468521118164,0.0
50,-3.927978515625,-2.833740234375,-4.9228515625,7.267175674438477,-7.618320465087891,4.610687255859375,-24.225379943847656,34.664730072021484,0.0,65.99613189697266,-69.8142318725586,39.88457489013672,-23.986000061035156,34.43917465209961,0.0
55,-3.92578125,-2.8330078125,-4.91650390625,7.465648651123047,-7.41984748840332,4.5190839767456055,-24.24140739440918,34.677425384521484,0.0,66.03346252441406,-69.85133361816406,39.907169342041016,-23.97309684753418,34.425052642822266,0.0
61,-3.925537109375,-2.83642578125,-4.911865234375,7.282442569732666,-7.328244209289551,4.427480697631836,-24.280174255371094,34.686676025390625,0.0,66.07715606689453,-69.89530181884766,39.93373489379883,-23.95643424987793,34.40463638305664,0.0
66,-3.926513671875,-2.834228515625,-4.92138671875,7.4809160232543945,-7.496183395385742,4.351145267486572,-24.236085891723633,34.65957260131836,0.0,66.11456298828125,-69.93278503417969,39.95549011230469,-23.941728591918945,34.388092041015625,0.0
71,-3.928955078125,-2.838623046875,-4.913818359375,7.4809160232543945,-7.14503812789917,4.687022686004639,-24.28430938720703,34.69682693481445,0.0,66.15196990966797,-69.96851348876953,39.97892379760742,-23.929725646972656,34.37539291381836,0.0
76,-3.930419921875,-2.833740234375,-4.921630859375,7.358778476715088,-7.206106662750244,5.022900581359863,-24.22344398498535,34.686378479003906,0.0,66.18876647949219,-70.00454711914062,40.0040397644043,-23.913654327392578,34.361122131347656,0.0
81,-3.93017578125,-2.8359375,-4.9169921875,7.389312744140625,-6.885496139526367,4.671755790710449,-24.252931594848633,34.69851303100586,0.0,66.22571563720703,-70.03897094726562,40.02739715576172,-23.89891815185547,34.34864807128906,0.0
86,-3.931396484375,-2.83447265625,-4.916259765625,7.4809160232543945,-6.824427604675293,4.900763511657715,-24.24119758605957,34.713294982910156,0.0,66.26312255859375,-70.07308959960938,40.051902770996094,-23.882694244384766,34.33677291870117,0.0
91,-3.927734375,-2.83251953125,-4.917236328125,7.328244209289551,-6.671755790710449,4.931297779083252,-24.231605529785156,34.68891525268555,0.0,66.29976654052734,-70.1064453125,40.076560974121094,-23.866439819335938,34.32379913330078,0.0
96,-3.9248046875,-2.83544921875,-4.920166015625,7.526717662811279,-7.282442569732666,4.900763511657715,-24.252206802368164,34.650020599365234,0.0,66.33740234375,-70.14286041259766,40.10106658935547,-23.850088119506836,34.30561447143555,0.0
101,-3.929931640625,-2.831787109375,-4.91748046875,7.267175674438477,-7.14503812789917,4.4122138023376465,-24.220741271972656,34.70463943481445,0.0,66.37374114990234,-70.1785888671875,40.12312698364258,-23.833248138427734,34.290714263916016,0.0
106,-3.9287109375,-2.83642578125,-4.92431640625,7.496183395385742,-7.267175674438477,4.56488561630249,-24.2402400970459,34.65741729736328,0.0,66.41122436523438,-70.21492767333984,40.14595031738281,-23.81610107421875,34.27281951904297,0.0
111,-3.927001953125,-2.8359375,-4.9189453125,7.618320465087891,-7.083969593048096,4.56488561630249,-24.25448226928711,34.66886520385742,0.0,66.4493179321289,-70.25035095214844,40.16877365112305,-23.798873901367188,34.25629425048828,0.0
116,-3.9306640625,-2.831787109375,-4.9091796875,7.328244209289551,-7.633587837219238,4.29007625579834,-24.241273880004883,34.743656158447266,0.0,66.4859619140625,-70.28852081298828,40.190223693847656,-23.7823486328125,34.240196228027344,0.0
121,-3.931640625,-2.83349609375,-4.918212890625,7.328244209289551,-7.2366414070129395,4.6259541511535645,-24.228092193603516,34.70927047729492,0.0,66.5226058959961,-70.32470703125,40.21335220336914,-23.765167236328125,34.224395751953125,0.0
126,-3.92431640625,-2.832763671875,-4.915771484375,7.9083967208862305,-7.129770755767822,4.595419883728027,-24.244626998901367,34.670997619628906,0.0,66.56214904785156,-70.36035919189453,40.236328125,-23.745773315429688,34.20746612548828,0.0
131,-3.927734375,-2.834228515625,-4.913818359375,7.496183395385742,-7.14503812789917,4.778625965118408,-24.253646850585938,34.69887924194336,0.0,66.5996322631836,-70.39608764648438,40.26021957397461,-23.72869300842285,34.19145965576172,0.0
136,-3.92919921875,-2.831787109375,-4.917236328125,7.603053569793701,-7.2366414070129395,5.022900581359863,-24.222946166992188,34.70064163208008,0.0,66.63764953613281,-70.4322738647461,40.285335540771484,-23.70989227294922,34.174964904785156,0.0
142,-3.927490234375,-2.8349609375,-4.91796875,7.41984748840332,-7.068702220916748,4.931297779083252,-24.248655319213867,34.67849349975586,0.0,66.68216705322266,-70.47468566894531,40.31492233276367,-23.685731887817383,34.151607513427734,0.0
147,-3.924072265625,-2.832763671875,-4.9130859375,7.328244209289551,-6.885496139526367,4.992366313934326,-24.25230598449707,34.68032455444336,0.0,66.71881103515625,-70.50910949707031,40.33988571166992,-23.669458389282227,34.13619613647461,0.0
152,-3.930908203125,-2.82861328125,-4.916259765625,7.43511438369751,-7.190839767456055,4.793893337249756,-24.197877883911133,34.72378921508789,0.0,66.75598907470703,-70.5450668334961,40.363853454589844,-23.650779724121094,34.120635986328125,0.0
157,-3.92626953125,-2.8330078125,-4.913330078125,7.312977313995361,-7.312977313995361,4.656488418579102,-24.248825073242188,34.693756103515625,0.0,66.79255676269531,-70.58163452148438,40.38713455200195,-23.63433837890625,34.1034049987793,0.0
162,-3.92578125,-2.832763671875,-4.91650390625,7.938931465148926,-7.557251930236816,4.687022686004639,-24.239559173583984,34.678001403808594,0.0,66.8322525024414,-70.61942291259766,40.41056823730469,-23.61449432373047,34.084468841552734,0.0
167,-3.9287109375,-2.8330078125,-4.91796875,7.465648651123047,-7.038167953491211,4.488549709320068,-24.23127555847168,34.69143295288086,0.0,66.86958312988281,-70.65461730957031,40.43301010131836,-23.596723556518555,34.0684814453125,0.0
172,-3.927001953125,-2.832275390625,-4.918212890625,7.5877861976623535,-7.5877861976623535,4.29007625579834,-24.228715896606445,34.68049240112305,0.0,66.90752410888672,-70.69255828857422,40.45446014404297,-23.578262329101562,34.049442291259766,0.0
177,-3.9248046875,-2.837158203125,-4.9150390625,7.3740458488464355,-7.251908302307129,4.549618244171143,-24.2788143157959,34.66695785522461,0.0,66.94439697265625,-70.72882080078125,40.47720718383789,-23.562257766723633,34.031681060791016,0.0
182,-3.928466796875,-2.8369140625,-4.91796875,7.541984558105469,-7.206106662750244,4.687022686004639,-24.261356353759766,34.68054962158203,0.0,66.98210906982422,-70.76485443115234,40.500640869140625,-23.54485321044922,34.0145263671875,0.0
187,-3.92822265625,-2.83935546875,-4.920654296875,7.43511438369751,-7.068702220916748,4.916030406951904,-24.2731876373291,34.662147521972656,0.0,67.019287109375,-70.80020141601562,40.52522277832031,-23.528240203857422,33.997528076171875,0.0
192,-3.92724609375,-2.833984375,-4.918212890625,7.41984748840332,-6.687022686004639,4.534351348876953,-24.241132736206055,34.678131103515625,0.0,67.05638885498047,-70.83363342285156,40.54789352416992,-23.510791778564453,33.9827995300293,0.0
197,-3.923583984375,-2.834716796875,-4.920166015625,7.389312744140625,-6.931297779083252,5.099236488342285,-24.249258041381836,34.643409729003906,0.0,67.09333801269531,-70.8682861328125,40.57339096069336,-23.493675231933594,33.96592330932617,0.0
202,-3.92822265625,-2.833984375,-4.923095703125,7.358778476715088,-7.404580116271973,5.038167953491211,-24.226058959960938,34.66482162475586,0.0,67.13013458251953,-70.90531158447266,40.59858322143555,-23.476093292236328,33.94728469848633,0.0
207,-3.927490234375,-2.83203125,-4.92041015625,7.282442569732666,-6.717557430267334,4.732824325561523,-24.219982147216797,34.675411224365234,0.0,67.16654968261719,-70.93889617919922,40.62224578857422,-23.458730697631836,33.93229293823242,0.0
212,-3.927001953125,-2.83984375,-4.921142578125,7.6946563720703125,-7.2366414070129395,4.839694499969482,-24.278175354003906,34.650672912597656,0.0,67.20502471923828,-70.97508239746094,40.64644241333008,-23.440738677978516,33.91412353515625,0.0
217,-3.927734375,-2.83056640625,-4.91943359375,7.541984558105469,-7.41984748840332,4.534351348876953,-24.21097183227539,34.68452453613281,0.0,67.24273681640625,-71.0121841430664,40.66911315917969,-23.42190170288086,33.89588928222656,0.0
223,-3.928955078125,-2.83203125,-4.912841796875,7.465648651123047,-7.328244209289551,4.717557430267334,-24.237010955810547,34.716400146484375,0.0,67.28752899169922,-71.05615234375,40.697418212890625,-23.396787643432617,33.871707916259766,0.0
228,-3.925537109375,-2.8359375,-4.916748046875,7.465648651123047,-7.175572395324707,4.885496139526367,-24.26345443725586,34.667850494384766,0.0,67.32485961914062,-71.09203338623047,40.72184753417969,-23.379724502563477,33.8544807434082,0.0
233,-3.927490234375,-2.83642578125,-4.92041015625,7.389312744140625,-7.068702220916748,4.85496187210083,-24.25323486328125,34.66505432128906,0.0,67.36180877685547,-71.12738037109375,40.74612045288086,-23.362777709960938,33.83772277832031,0.0
238,-3.929443359375,-2.830078125,-4.92041015625,7.541984558105469,-7.007633686065674,5.14503812789917,-24.2010498046875,34.69334030151367,0.0,67.39952087402344,-71.16242218017578,40.771846771240234,-23.343935012817383,33.821868896484375,0.0
243,-3.931396484375,-2.8349609375,-4.915771484375,7.511450290679932,-6.916030406951904,4.717557430267334,-24.246192932128906,34.714141845703125,0.0,67.43708038330078,-71.1969985961914,40.795433044433594,-23.32623291015625,33.80686950683594,0.0
248,-3.925537109375,-2.831298828125,-4.912841796875,7.648854732513428,-6.931297779083252,5.068702220916748,-24.23874282836914,34.69478988647461,0.0,67.47532653808594,-71.23165130615234,40.820777893066406,-23.307701110839844,33.79133987426758,0.0
253,-3.93359375,-2.831298828125,-4.915771484375,7.648854732513428,-7.038167953491211,4.977099418640137,-24.213802337646484,34.73777770996094,0.0,67.5135726928711,-71.266845703125,40.845664978027344,-23.288679122924805,33.77613067626953,0.0
258,-3.9267578125,-2.830322265625,-4.915771484375,7.70992374420166,-7.404580116271973,4.702290058135986,-24.220945358276367,34.69343185424805,0.0,67.5521240234375,-71.30387115478516,40.86917495727539,-23.2695369720459,33.75818634033203,0.0
263,-3.93017578125,-2.837158203125,-4.9267578125,7.343511581420898,-6.900763511657715,4.671755790710449,-24.23617172241211,34.65570831298828,0.0,67.5888442993164,-71.33837127685547,40.89253234863281,-23.252525329589844,33.74198913574219,0.0
268,-3.92919921875,-2.834228515625,-4.921142578125,7.389312744140625,-7.160305500030518,4.885496139526367,-24.231029510498047,34.678897857666016,0.0,67.62579345703125,-71.37417602539062,40.916961669921875,-23.23518180847168,33.72496795654297,0.0
273,-3.927978515625,-2.83447265625,-4.913330078125,7.358778476715088,-7.190839767456055,4.687022686004639,-24.256277084350586,34.70196533203125,0.0,67.66259002685547,-71.4101333618164,40.94039535522461,-23.218469619750977,33.70824432373047,0.0
278,-3.9345703125,-2.8349609375,-4.9228515625,7.267175674438477,-6.839694499969482,4.641221523284912,-24.22061538696289,34.706809997558594,0.0,67.69892883300781,-71.44432830810547,40.963600158691406,-23.20152473449707,33.693328857421875,0.0
283,-3.9248046875,-2.830810546875,-4.91162109375,7.328244209289551,-7.343511581420898,4.534351348876953,-24.23985481262207,34.69594192504883,0.0,67.7355728149414,-71.48104858398438,40.986270904541016,-23.184633255004883,33.67570877075195,0.0
288,-3.92822265625,-2.83447265625,-4.916259765625,7.190839767456055,-7.267175674438477,4.839694499969482,-24.247953414916992,34.6916389465332,0.0,67.77153015136719,-71.51738739013672,41.010467529296875,-23.168560028076172,33.65840148925781,0.0
293,-3.9267578125,-2.832763671875,-4.914306640625,7.312977313995361,-7.190839767456055,4.6259541511535645,-24.243335723876953,34.693668365478516,0.0,67.80809783935547,-71.5533447265625,41.03359603881836,-23.151782989501953,33.64152145385742,0.0
298,-3.92626953125,-2.828857421875,-4.91259765625,7.633587837219238,-7.083969593048096,4.717557430267334,-24.219335556030273,34.70655822753906,0.0,67.84626770019531,-71.5887680053711,41.05718231201172,-23.133007049560547,33.62540054321289,0.0
304,-3.931640625,-2.836669921875,-4.916748046875,7.083969593048096,-7.083969593048096,4.85496187210083,-24.256006240844727,34.7077751159668,0.0,67.8887710571289,-71.63127136230469,41.08631134033203,-23.11066246032715,33.60235595703125,0.0
309,-3.928955078125,-2.8310546875,-4.913818359375,7.389312744140625,-7.4809160232543945,4.58015251159668,-24.22701644897461,34.71470642089844,0.0,67.92572021484375,-71.6686782836914,41.10921096801758,-23.093374252319336,33.58455276489258,0.0
314,-3.9287109375,-2.834716796875,-4.921142578125,7.5877861976623535,-7.43511438369751,4.4122138023376465,-24.235761642456055,34.674415588378906,0.0,67.96366119384766,-71.70585632324219,41.13127136230469,-23.075267791748047,33.566314697265625,0.0
319,-3.92822265625,-2.83203125,-4.913818359375,7.312977313995361,-7.267175674438477,4.56488561630249,-24.235971450805664,34.707401275634766,0.0,68.00022888183594,-71.74219512939453,41.15409469604492,-23.05853843688965,33.54948806762695,0.0
324,-3.927734375,-2.8310546875,-4.91748046875,7.6946563720703125,-7.251908302307129,4.534351348876953,-24.219865798950195,34.69137191772461,0.0,68.03870391845703,-71.77845764160156,41.17676544189453,-23.039670944213867,33.5324821472168,0.0
329,-3.928955078125,-2.83642578125,-4.917236328125,7.618320465087891,-7.14503812789917,4.809160232543945,-24.258573532104492,34.68803024291992,0.0,68.07679748535156,-71.8141860961914,41.200809478759766,-23.0218448638916,33.51596450805664,0.0
334,-3.929931640625,-2.837646484375,-4.920654296875,7.2366414070129395,-6.778625965118408,4.885496139526367,-24.256628036499023,34.67783737182617,0.0,68.11298370361328,-71.84807586669922,41.22523880004883,-23.005882263183594,33.501094818115234,0.0
339,-3.92578125,-2.832275390625,-4.91259765625,7.541984558105469,-7.41984748840332,5.099236488342285,-24.24627113342285,34.695152282714844,0.0,68.15069580078125,-71.88517761230469,41.250736236572266,-22.98824119567871,33.48332977294922,0.0
344,-3.9267578125,-2.83837890625,-4.915771484375,7.312977313995361,-7.282442569732666,4.85496187210083,-24.281936645507812,34.674415588378906,0.0,68.18726348876953,-71.92159271240234,41.27500915527344,-22.97229766845703,33.46595001220703,0.0
349,-3.929443359375,-2.83154296875,-4.916015625,7.496183395385742,-7.41984748840332,4.610687255859375,-24.223827362060547,34.707881927490234,0.0,68.22474670410156,-71.95869445800781,41.29806137084961,-22.95454978942871,33.44843292236328,0.0
354,-3.9287109375,-2.83447265625,-4.913818359375,7.541984558105469,-6.977099418640137,4.56488561630249,-24.253416061401367,34.7049674987793,0.0,68.26245880126953,-71.99358367919922,41.320884704589844,-22.93705177307129,33.433074951171875,0.0
359,-3.92919921875,-2.836181640625,-4.91796875,7.511450290679932,-7.206106662750244,4.595419883728027,-24.254255294799805,34.687278747558594,0.0,68.30001831054688,-72.02961730957031,41.3438606262207,-22.91973304748535,33.41632080078125,0.0
364,-3.933349609375,-2.8369140625,-4.91455078125,7.3740458488464355,-7.3740458488464355,4.5190839767456055,-24.26006317138672,34.727848052978516,0.0,68.3368911743164,-72.06649017333984,41.366455078125,-22.903194427490234,33.399356842041016,0.0
369,-3.92919921875,-2.833251953125,-4.91357421875,7.618320465087891,-7.496183395385742,4.778625965118408,-24.243783950805664,34.71218490600586,0.0,68.37498474121094,-72.10397338867188,41.39034652709961,-22.88521957397461,33.3815803527832,0.0
374,-3.92529296875,-2.833251953125,-4.912841796875,7.572519302368164,-6.961832046508789,4.977099418640137,-24.254056930541992,34.68851089477539,0.0,68.41284942626953,-72.13878631591797,41.41523361206055,-22.867647171020508,33.366127014160156,0.0
379,-3.9296875,-2.8330078125,-4.919677734375,7.267175674438477,-7.038167953491211,5.083969593048096,-24.224653244018555,34.69110107421875,0.0,68.44918823242188,-72.17398071289062,41.44065475463867,-22.851184844970703,33.35033416748047,0.0
385,-3.930419921875,-2.835205078125,-4.91943359375,7.389312744140625,-6.85496187210083,4.473282337188721,-24.240371704101562,34.691917419433594,0.0,68.49352264404297,-72.2151107788086,41.46749496459961,-22.827096939086914,33.3287353515625,0.0
390,-3.926513671875,-2.830322265625,-4.907470703125,7.541984558105469,-6.732824325561523,5.343511581420898,-24.243576049804688,34.725791931152344,0.0,68.53123474121094,-72.24877166748047,41.49421310424805,-22.809703826904297,33.315059661865234,0.0
395,-3.92919921875,-2.834228515625,-4.91650390625,7.4809160232543945,-6.717557430267334,5.007633686065674,-24.243375778198242,34.697879791259766,0.0,68.56864166259766,-72.28235626220703,41.51925277709961,-22.792631149291992,33.301048278808594,0.0
400,-3.92724609375,-2.8310546875,-4.917724609375,7.404580116271973,-7.099236488342285,5.099236488342285,-24.22025489807129,34.68703842163086,0.0,68.60566711425781,-72.31785583496094,41.54475021362305,-22.775638580322266,33.28499221801758,0.0
405,-3.926513671875,-2.832275390625,-4.912841796875,7.572519302368164,-7.206106662750244,5.175572395324707,-24.24405860900879,34.699153900146484,0.0,68.6435317993164,-72.35388946533203,41.57062911987305,-22.758163452148438,33.26858901977539,0.0
410,-3.927978515625,-2.8330078125,-4.914794921875,7.41984748840332,-7.343511581420898,4.458015441894531,-24.24128532409668,34.69942855834961,0.0,68.68063354492188,-72.39060974121094,41.592918395996094,-22.741430282592773,33.25153350830078,0.0
415,-3.930419921875,-2.83251953125,-4.909912109375,7.450381755828857,-7.4809160232543945,4.671755790710449,-24.245391845703125,34.73725509643555,0.0,68.71788787841797,-72.42801666259766,41.616275787353516,-22.724620819091797,33.23433303833008,0.0
420,-3.927734375,-2.83251953125,-4.912841796875,7.557251930236816,-7.358778476715088,4.7633585929870605,-24.243309020996094,34.706912994384766,0.0,68.75567626953125,-72.46481323242188,41.64009094238281,-22.707275390625,33.21736526489258,0.0
425,-3.93115234375,-2.83447265625,-4.91650390625,7.251908302307129,-7.190839767456055,4.488549709320068,-24.24106788635254,34.71063232421875,0.0,68.79193878173828,-72.50077056884766,41.662532806396484,-22.691436767578125,33.20130157470703,0.0
430,-3.932373046875,-2.8359375,-4.922607421875,7.328244209289551,-7.083969593048096,4.717557430267334,-24.23331642150879,34.690528869628906,0.0,68.82858276367188,-72.53619384765625,41.686119079589844,-22.67513084411621,33.185523986816406,0.0
435,-3.9267578125,-2.83740234375,-4.919677734375,7.557251930236816,-7.282442569732666,4.916030406951904,-24.26413345336914,34.66074752807617,0.0,68.86637115478516,-72.5726089477539,41.71070098876953,-22.658105850219727,33.16840362548828,0.0
440,-3.930419921875,-2.832763671875,-4.915283203125,7.450381755828857,-7.206106662750244,4.946564674377441,-24.232940673828125,34.71466827392578,0.0,68.90362548828125,-72.608642578125,41.735435485839844,-22.641237258911133,33.152381896972656,0.0
445,-3.92919921875,-2.8330078125,-4.919921875,7.2366414070129395,-6.870229244232178,4.900763511657715,-24.225040435791016,34.686771392822266,0.0,68.93981170654297,-72.64299011230469,41.75994110107422,-22.62535285949707,33.13768768310547,0.0
450,-3.927001953125,-2.832275390625,-4.91259765625,7.206106662750244,-7.068702220916748,4.931297779083252,-24.243669509887695,34.7034912109375,0.0,68.97584533691406,-72.67833709716797,41.78459930419922,-22.609867095947266,33.12222671508789,0.0
455,-3.9248046875,-2.840087890625,-4.9140625,7.251908302307129,-7.022900581359863,5.068702220916748,-24.303592681884766,34.66402816772461,0.0,69.0121078491211,-72.71345520019531,41.80994415283203,-22.59490394592285,33.10652542114258,0.0
460,-3.9296875,-2.834228515625,-4.919189453125,7.511450290679932,-7.358778476715088,4.916030406951904,-24.23518943786621,34.69021987915039,0.0,69.04966735839844,-72.75025177001953,41.83452606201172,-22.577821731567383,33.089508056640625,0.0
466,-3.92919921875,-2.837158203125,-4.92138671875,7.282442569732666,-7.633587837219238,4.793893337249756,-24.25254249572754,34.670997619628906,0.0,69.0860824584961,-72.78842163085938,41.85849380493164,-22.562114715576172,33.07093811035156,0.0
471,-3.9296875,-2.83056640625,-4.918212890625,7.5877861976623535,-7.72519063949585,4.229007720947266,-24.21006965637207,34.70285415649414,0.0,69.13160705566406,-72.83477020263672,41.88386917114258,-22.53693962097168,33.04475402832031,0.0
476,-3.929931640625,-2.83154296875,-4.9228515625,7.297709941864014,-7.099236488342285,4.56488561630249,-24.20461082458496,34.6832275390625,0.0,69.16809844970703,-72.87026977539062,41.90669250488281,-22.52075958251953,33.02920913696289,0.0
481,-3.930419921875,-2.836181640625,-4.92236328125,7.4809160232543945,-7.526717662811279,4.748091697692871,-24.239961624145508,34.67763137817383,0.0,69.20550537109375,-72.90790557861328,41.9304313659668,-22.504119873046875,33.01150894165039,0.0
486,-3.926025390625,-2.835205078125,-4.917236328125,7.496183395385742,-7.114503860473633,4.824427604675293,-24.255571365356445,34.67091369628906,0.0,69.24298858642578,-72.9434814453125,41.954551696777344,-22.48761558532715,32.995811462402344,0.0
491,-3.928466796875,-2.834716796875,-4.915771484375,7.43511438369751,-7.5877861976623535,4.900763511657715,-24.250581741333008,34.69472885131836,0.0,69.28016662597656,-72.9814224243164,41.97905731201172,-22.47138214111328,32.97808074951172,0.0
496,-3.93212890625,-2.8388671875,-4.915283203125,7.3740458488464355,-6.7633585929870605,4.473282337188721,-24.275487899780273,34.711910247802734,0.0,69.3170394897461,-73.0152359008789,42.00142288208008,-22.45576286315918,32.96466827392578,0.0
501,-3.927001953125,-2.835205078125,-4.91259765625,7.251908302307129,-7.129770755767822,4.549618244171143,-24.26585578918457,34.69656753540039,0.0,69.35330200195312,-73.05088806152344,42.024169921875,-22.440654754638672,32.94926834106445,0.0
506,-3.93115234375,-2.831787109375,-4.915771484375,7.541984558105469,-7.3740458488464355,5.221374034881592,-24.22269058227539,34.719970703125,0.0,69.3910140991211,-73.08776092529297,42.05027770996094,-22.423633575439453,32.93294906616211,0.0
511,-3.92578125,-2.837646484375,-4.91552734375,7.389312744140625,-7.175572395324707,4.5190839767456055,-24.279125213623047,34.670475006103516,0.0,69.42796325683594,-73.12364196777344,42.072872161865234,-22.40804100036621,32.917083740234375,0.0
516,-3.92724609375,-2.83154296875,-4.912353515625,7.72519063949585,-7.343511581420898,4.641221523284912,-24.238252639770508,34.7078857421875,0.0,69.46659088134766,-73.16036224365234,42.09607696533203,-22.390350341796875,32.900840759277344,0.0
521,-3.933349609375,-2.833740234375,-4.912841796875,7.526717662811279,-7.022900581359863,4.503816604614258,-24.240591049194336,34.74235153198242,0.0,69.50422668457031,-73.19548034667969,42.118595123291016,-22.37371253967285,32.8865966796875,0.0
526,-3.9267578125,-2.8330078125,-4.912109375,7.4809160232543945,-7.14503812789917,4.549618244171143,-24.25103759765625,34.702091217041016,0.0,69.54163360595703,-73.23120880126953,42.14134216308594,-22.357450485229492,32.871315002441406,0.0
531,-3.9306640625,-2.8369140625,-4.919189453125,7.190839767456055,-7.2366414070129395,4.320610523223877,-24.25343132019043,34.690547943115234,0.0,69.57759094238281,-73.26739501953125,42.16294479370117,-22.342681884765625,32.85547637939453,0.0
536,-3.930419921875,-2.8359375,-4.919189453125,7.526717662811279,-7.312977313995361,4.778625965118408,-24.24656105041504,34.69118881225586,0.0,69.61522674560547,-73.30396270751953,42.18683624267578,-22.326190948486328,32.83930206298828,0.0
541,-3.927734375,-2.83251953125,-4.916015625,7.511450290679932,-7.14503812789917,5.099236488342285,-24.23485565185547,34.693912506103516,0.0,69.65278625488281,-73.33969116210938,42.21233367919922,-22.30968475341797,32.82402420043945,0.0
547,-3.93017578125,-2.83642578125,-4.9208984375,7.4809160232543945,-7.389312744140625,4.641221523284912,-24.246225357055664,34.68138122558594,0.0,69.69019317626953,-73.37664031982422,42.235538482666016,-22.293487548828125,32.807430267333984,0.0
552,-3.92724609375,-2.8349609375,-4.9169921875,7.557251930236816,-7.297709941864014,4.916030406951904,-24.25177574157715,34.680824279785156,0.0,69.73553466796875,-73.42042541503906,42.26503372192383,-22.269567489624023,32.78414535522461,0.0
557,-3.9296875,-2.832275390625,-4.91796875,7.190839767456055,-7.114503860473633,5.114503860473633,-24.223655700683594,34.69982147216797,0.0,69.77149200439453,-73.45600128173828,42.29060745239258,-22.25475311279297,32.76930236816406,0.0
562,-3.9267578125,-2.831787109375,-4.9140625,7.541984558105469,-7.221374034881592,4.549618244171143,-24.236589431762695,34.69697570800781,0.0,69.8092041015625,-73.49211120605469,42.3133544921875,-22.238357543945312,32.75392150878906,0.0
567,-3.92822265625,-2.833740234375,-4.916259765625,7.297709941864014,-7.038167953491211,4.320610523223877,-24.242408752441406,34.69336700439453,0.0,69.84569549560547,-73.52730560302734,42.334957122802734,-22.223268508911133,32.73944091796875,0.0
572,-3.930419921875,-2.83251953125,-4.912841796875,7.648854732513428,-7.511450290679932,4.396946430206299,-24.237590789794922,34.72524642944336,0.0,69.88394165039062,-73.56486511230469,42.35694122314453,-22.206417083740234,32.72297286987305,0.0
577,-3.93212890625,-2.8330078125,-4.9169921875,7.5877861976623535,-6.992366313934326,4.56488561630249,-24.226606369018555,34.71875,0.0,69.92188262939453,-73.5998306274414,42.379764556884766,-22.189796447753906,32.70904541015625,0.0
582,-3.929931640625,-2.828125,-4.912841796875,6.900763511657715,-7.022900581359863,4.442748069763184,-24.20534324645996,34.73229217529297,0.0,69.95638275146484,-73.63494873046875,42.4019775390625,-22.17639923095703,32.695125579833984,0.0
587,-3.9248046875,-2.83544921875,-4.92529296875,7.41984748840332,-7.465648651123047,4.6259541511535645,-24.23854637145996,34.629066467285156,0.0,69.99348449707031,-73.67227935791016,42.425106048583984,-22.160783767700195,32.677974700927734,0.0
592,-3.92529296875,-2.83154296875,-4.911865234375,7.572519302368164,-7.175572395324707,4.778625965118408,-24.24371337890625,34.6965446472168,0.0,70.0313491821289,-73.70816040039062,42.448997497558594,-22.144498825073242,32.663002014160156,0.0
597,-3.922119140625,-2.836669921875,-4.90966796875,7.557251930236816,-7.267175674438477,4.610687255859375,-24.295183181762695,34.6717414855957,0.0,70.06913757324219,-73.74449920654297,42.472049713134766,-22.128849029541016,32.64735412597656,0.0
602,-3.92626953125,-2.83984375,-4.915283203125,7.267175674438477,-7.297709941864014,4.916030406951904,-24.29536247253418,34.669620513916016,0.0,70.10547637939453,-73.78099060058594,42.49663162231445,-22.114669799804688,32.63157272338867,0.0
607,-3.925537109375,-2.833984375,-4.915283203125,7.389312744140625,-7.3740458488464355,4.809160232543945,-24.252574920654297,34.67845153808594,0.0,70.14242553710938,-73.81786346435547,42.52067565917969,-22.09947395324707,32.615543365478516,0.0
612,-3.927978515625,-2.83740234375,-4.91796875,7.41984748840332,-7.251908302307129,4.641221523284912,-24.266090393066406,34.67606735229492,0.0,70.17952728271484,-73.8541259765625,42.543880462646484,-22.084291458129883,32.60013961791992,0.0
617,-3.931884765625,-2.835205078125,-4.914794921875,7.3740458488464355,-6.977099418640137,4.687022686004639,-24.24959945678711,34.72089767456055,0.0,70.21640014648438,-73.8890151977539,42.56731414794922,-22.069202423095703,32.58657455444336,0.0
622,-3.928955078125,-2.83544921875,-4.918212890625,7.312977313995361,-7.389312744140625,4.427480697631836,-24.24858283996582,34.68634033203125,0.0,70.25296783447266,-73.92596435546875,42.58945083618164,-22.0544376373291,32.57065200805664,0.0
628,-3.928955078125,-2.829833984375,-4.91015625,7.251908302307129,-7.14503812789917,4.717557430267334,-24.227519989013672,34.73260498046875,0.0,70.28923034667969,-73.9616928100586,42.613037109375,-22.039798736572266,32.556434631347656,0.0
633,-3.9267578125,-2.8349609375,-4.917236328125,7.358778476715088,-7.160305500030518,4.396946430206299,-24.25216293334961,34.676490783691406,0.0,70.33338165283203,-74.00465393066406,42.63941955566406,-22.017654418945312,32.53457260131836,0.0
638,-3.928955078125,-2.83740234375,-4.919677734375,7.450381755828857,-7.2366414070129395,4.656488418579102,-24.259458541870117,34.675743103027344,0.0,70.37063598632812,-74.04084014892578,42.66270065307617,-22.00251579284668,32.51951599121094,0.0
643,-3.926513671875,-2.8359375,-4.915283203125,7.3740458488464355,-7.4809160232543945,4.931297779083252,-24.26527976989746,34.680511474609375,0.0,70.40750885009766,-74.0782470703125,42.68735885620117,-21.987844467163086,32.503334045410156,0.0
648,-3.92626953125,-2.83349609375,-4.917236328125,7.5877861976623535,-7.603053569793701,4.931297779083252,-24.242115020751953,34.676612854003906,0.0,70.44544982910156,-74.11626434326172,42.71201705932617,-21.971921920776367,32.4865608215332,0.0
653,-3.927734375,-2.836669921875,-4.91943359375,7.496183395385742,-7.282442569732666,4.656488418579102,-24.257165908813477,34.67013931274414,0.0,70.4829330444336,-74.15267944335938,42.73529815673828,-21.95663833618164,32.47136688232422,0.0
658,-3.92626953125,-2.8310546875,-4.91943359375,7.343511581420898,-6.977099418640137,5.160305500030518,-24.21778106689453,34.67337417602539,0.0,70.5196533203125,-74.18756866455078,42.76110076904297,-21.9417724609375,32.45775604248047,0.0
663,-3.9306640625,-2.8330078125,-4.918212890625,7.221374034881592,-7.083969593048096,4.7633585929870605,-24.22647476196289,34.703758239746094,0.0,70.5557632446289,-74.22299194335938,42.784915924072266,-21.927631378173828,32.44392776489258,0.0
668,-3.9287109375,-2.831787109375,-4.912109375,7.755725383758545,-6.992366313934326,4.900763511657715,-24.237632751464844,34.71831130981445,0.0,70.59454345703125,-74.2579574584961,42.80942153930664,-21.91097640991211,32.43071746826172,0.0
673,-3.92919921875,-2.8349609375,-4.921630859375,7.43511438369751,-7.038167953491211,4.183206081390381,-24.235271453857422,34.675174713134766,0.0,70.63172149658203,-74.29315185546875,42.83033752441406,-21.895938873291016,32.41689682006836,0.0
678,-3.9296875,-2.834228515625,-4.910888671875,7.4809160232543945,-7.358778476715088,5.129770755767822,-24.257291793823242,34.72420883178711,0.0,70.66912841796875,-74.32994842529297,42.855987548828125,-21.880916595458984,32.4019775390625,0.0
683,-3.931396484375,-2.83837890625,-4.91552734375,7.603053569793701,-7.511450290679932,4.671755790710449,-24.272705078125,34.707069396972656,0.0,70.70714569091797,-74.36750793457031,42.87934494018555,-21.86547088623047,32.38618087768555,0.0
688,-3.93408203125,-2.830810546875,-4.916259765625,7.358778476715088,-7.160305500030518,4.503816604614258,-24.2077693939209,34.74026107788086,0.0,70.74394226074219,-74.40331268310547,42.90186309814453,-21.850675582885742,32.37247848510742,0.0
693,-3.927001953125,-2.832763671875,-4.916015625,7.4809160232543945,-7.465648651123047,4.320610523223877,-24.238262176513672,34.68833923339844,0.0,70.7813491821289,-74.44064331054688,42.923465728759766,-21.835594177246094,32.356815338134766,0.0
698,-3.927001953125,-2.8349609375,-4.913818359375,7.267175674438477,-7.465648651123047,4.488549709320068,-24.260753631591797,34.69214630126953,0.0,70.81768798828125,-74.47797393798828,42.94590759277344,-21.821819305419922,32.34123611450195,0.0
703,-3.927490234375,-2.836181640625,-4.92138671875,7.664122104644775,-7.2366414070129395,5.099236488342285,-24.24878692626953,34.66163635253906,0.0,70.85601043701172,-74.51416015625,42.971405029296875,-21.80599594116211,32.326560974121094,0.0
708,-3.928466796875,-2.835693359375,-4.912841796875,7.4809160232543945,-6.977099418640137,4.687022686004639,-24.265779495239258,34.70441436767578,0.0,70.89341735839844,-74.5490493774414,42.99483871459961,-21.791282653808594,32.3135986328125,0.0
714,-3.926513671875,-2.8359375,-4.9150390625,7.6946563720703125,-6.7633585929870605,4.671755790710449,-24.265932083129883,34.68151092529297,0.0,70.93958282470703,-74.58963012695312,43.02286911010742,-21.767972946166992,32.294857025146484,0.0
719,-3.92529296875,-2.8291015625,-4.916259765625,7.312977313995361,-6.916030406951904,4.6259541511535645,-24.21351432800293,34.684303283691406,0.0,70.97615051269531,-74.62420654296875,43.045997619628906,-21.753820419311523,32.28216552734375,0.0
724,-3.927001953125,-2.831298828125,-4.916015625,7.496183395385742,-7.114503860473633,4.671755790710449,-24.227170944213867,34.691795349121094,0.0,71.01363372802734,-74.65978240966797,43.06935501098633,-21.73891830444336,32.26858139038086,0.0
729,-3.9296875,-2.830322265625,-4.916015625,7.862595558166504,-6.916030406951904,4.748091697692871,-24.214065551757812,34.71242904663086,0.0,71.05294799804688,-74.6943588256836,43.09309387207031,-21.722126007080078,32.25619888305664,0.0
734,-3.92578125,-2.833251953125,-4.91552734375,7.343511581420898,-7.4809160232543945,4.732824325561523,-24.245859146118164,34.68084716796875,0.0,71.08966827392578,-74.73176574707031,43.116756439208984,-21.708248138427734,32.24075698852539,0.0
739,-3.928466796875,-2.83544921875,-4.912841796875,7.282442569732666,-7.175572395324707,4.900763511657715,-24.263931274414062,34.70499038696289,0.0,71.12608337402344,-74.76764678955078,43.14126205444336,-21.694868087768555,32.22709274291992,0.0
744,-3.92578125,-2.833984375,-4.921630859375,7.43511438369751,-7.389312744140625,4.396946430206299,-24.235143661499023,34.65414810180664,0.0,71.16326141357422,-74.80459594726562,43.163246154785156,-21.680503845214844,32.21195602416992,0.0
749,-3.92822265625,-2.83251953125,-4.9150390625,6.931297779083252,-7.572519302368164,4.809160232543945,-24.236417770385742,34.70124816894531,0.0,71.19791412353516,-74.84246063232422,43.18729019165039,-21.66868782043457,32.19637680053711,0.0
754,-3.92919921875,-2.833740234375,-4.91748046875,7.648854732513428,-7.206106662750244,4.778625965118408,-24.23708152770996,34.69503402709961,0.0,71.23616027832031,-74.87849426269531,43.211181640625,-21.653339385986328,32.18260955810547,0.0
759,-3.9208984375,-2.833740234375,-4.92041015625,7.404580116271973,-7.221374034881592,4.442748069763184,-24.246923446655273,34.62636947631836,0.0,71.27318572998047,-74.91460418701172,43.233394622802734,-21.63933563232422,32.16820526123047,0.0
764,-3.929443359375,-2.832275390625,-4.91162109375,7.251908302307129,-7.099236488342285,5.038167953491211,-24.241071701049805,34.724159240722656,0.0,71.3094482421875,-74.95010375976562,43.25858688354492,-21.626075744628906,32.155303955078125,0.0
769,-3.9267578125,-2.833740234375,-4.915283203125,7.267175674438477,-7.2366414070129395,4.961832046508789,-24.248126983642578,34.6873664855957,0.0,71.34578704833984,-74.98628997802734,43.28339767456055,-21.61283302307129,32.14142990112305,0.0
774,-3.9287109375,-2.835693359375,-4.914794921875,7.511450290679932,-7.3740458488464355,4.671755790710449,-24.260053634643555,34.69808578491211,0.0,71.38334655761719,-75.02316284179688,43.30675506591797,-21.598512649536133,32.127010345458984,0.0
779,-3.927490234375,-2.832275390625,-4.914794921875,7.633587837219238,-7.297709941864014,4.85496187210083,-24.236778259277344,34.69782257080078,0.0,71.42151641845703,-75.05965423583984,43.33102798461914,-21.58342933654785,32.11301040649414,0.0
784,-3.9267578125,-2.83251953125,-4.916748046875,7.511450290679932,-7.083969593048096,4.442748069763184,-24.234983444213867,34.68424987792969,0.0,71.45907592773438,-75.09507751464844,43.353240966796875,-21.568984985351562,32.09999465942383,0.0
789,-3.93017578125,-2.83203125,-4.916259765625,7.6946563720703125,-7.129770755767822,4.29007625579834,-24.225317001342773,34.710731506347656,0.0,71.49755096435547,-75.13072967529297,43.374691009521484,-21.5535945892334,32.087013244628906,0.0
795,-3.9287109375,-2.83349609375,-4.92041015625,7.4809160232543945,-7.3740458488464355,4.183206081390381,-24.228473663330078,34.68029022216797,0.0,71.54243469238281,-75.17497253417969,43.3997917175293,-21.531978607177734,32.06533432006836,0.0
800,-3.924072265625,-2.832763671875,-4.91650390625,7.496183395385742,-7.221374034881592,4.259541988372803,-24.243194580078125,34.66633224487305,0.0,71.57991790771484,-75.2110824584961,43.42108917236328,-21.517934799194336,32.05171203613281,0.0
805,-3.92626953125,-2.835693359375,-4.906494140625,7.4809160232543945,-6.85496187210083,4.687022686004639,-24.287397384643555,34.71541213989258,0.0,71.61732482910156,-75.24535369873047,43.444522857666016,-21.504383087158203,32.04036331176758,0.0
810,-3.930419921875,-2.83251953125,-4.916748046875,7.389312744140625,-7.389312744140625,4.442748069763184,-24.22719383239746,34.70924377441406,0.0,71.6542739868164,-75.28230285644531,43.46673583984375,-21.490812301635742,32.026336669921875,0.0
815,-3.932861328125,-2.832275390625,-4.914794921875,7.679389476776123,-6.732824325561523,4.6259541511535645,-24.2253475189209,34.73447799682617,0.0,71.69267272949219,-75.31596374511719,43.489864349365234,-21.475826263427734,32.01581954956055,0.0
820,-3.9287109375,-2.837158203125,-4.91943359375,7.358778476715088,-6.992366313934326,4.870229244232178,-24.25878143310547,34.67565155029297,0.0,71.7294692993164,-75.3509292602539,43.514217376708984,-21.4627628326416,32.003536224365234,0.0
825,-3.930419921875,-2.8330078125,-4.910888671875,7.282442569732666,-7.358778476715088,4.85496187210083,-24.24648666381836,34.73209762573242,0.0,71.76588439941406,-75.38772583007812,43.538490295410156,-21.450010299682617,31.989940643310547,0.0
830,-3.927490234375,-2.834228515625,-4.91357421875,7.267175674438477,-7.221374034881592,5.206106662750244,-24.254817962646484,34.698211669921875,0.0,71.8022232055664,-75.42383575439453,43.56452178955078,-21.437437057495117,31.97678565979004,0.0
835,-3.923583984375,-2.833984375,-4.9208984375,7.43511438369751,-7.190839767456055,4.870229244232178,-24.241764068603516,34.64214324951172,0.0,71.83940124511719,-75.45979309082031,43.58887481689453,-21.423952102661133,31.963354110717773,0.0
840,-3.93115234375,-2.83447265625,-4.91748046875,7.648854732513428,-7.251908302307129,4.351145267486572,-24.23847007751465,34.706634521484375,0.0,71.87764739990234,-75.49605560302734,43.61063003540039,-21.409421920776367,31.950199127197266,0.0
845,-3.928955078125,-2.834716796875,-4.91748046875,7.5877861976623535,-7.43511438369751,4.824427604675293,-24.244991302490234,34.69106674194336,0.0,71.91558837890625,-75.53323364257812,43.63475036621094,-21.39529800415039,31.936046600341797,0.0
850,-3.9267578125,-2.831298828125,-4.918701171875,7.450381755828857,-7.496183395385742,4.732824325561523,-24.22054100036621,34.67913055419922,0.0,71.95284271240234,-75.57071685791016,43.65841293334961,-21.381698608398438,31.921541213989258,0.0
855,-3.92919921875,-2.8369140625,-4.912841796875,7.312977313995361,-7.43511438369751,4.946564674377441,-24.273460388183594,34.70652770996094,0.0,71.98941040039062,-75.60789489746094,43.68314743041992,-21.369258880615234,31.907617568969727,0.0
860,-3.928466796875,-2.83251953125,-4.91650390625,7.43511438369751,-7.114503860473633,4.7633585929870605,-24.231998443603516,34.69691467285156,0.0,72.0265884399414,-75.64347076416016,43.70696258544922,-21.355907440185547,31.895254135131836,0.0
865,-3.931396484375,-2.831787109375,-4.921142578125,7.297709941864014,-7.343511581420898,4.58015251159668,-24.2078914642334,34.69963836669922,0.0,72.06307983398438,-75.68019104003906,43.729862213134766,-21.343080520629883,31.881811141967773,0.0
870,-3.927734375,-2.83642578125,-4.921142578125,7.496183395385742,-7.007633686065674,4.824427604675293,-24.250764846801758,34.663726806640625,0.0,72.1005630493164,-75.7152328491211,43.75398254394531,-21.329660415649414,31.86978530883789,0.0
876,-3.927734375,-2.837890625,-4.920166015625,7.72519063949585,-6.992366313934326,5.14503812789917,-24.264448165893555,34.66426467895508,0.0,72.14691162109375,-75.75718688964844,43.78485107421875,-21.307655334472656,31.850994110107422,0.0
881,-3.927001953125,-2.833740234375,-4.91943359375,7.328244209289551,-7.251908302307129,4.442748069763184,-24.236553192138672,34.67204666137695,0.0,72.18355560302734,-75.79344940185547,43.807064056396484,-21.295164108276367,31.83800506591797,0.0
886,-3.92822265625,-2.83349609375,-4.917236328125,7.557251930236816,-7.038167953491211,4.778625965118408,-24.237960815429688,34.689945220947266,0.0,72.22134399414062,-75.82864379882812,43.830955505371094,-21.281585693359375,31.826263427734375,0.0
891,-3.927001953125,-2.833740234375,-4.9208984375,7.404580116271973,-6.870229244232178,4.56488561630249,-24.23265266418457,34.666053771972656,0.0,72.25836944580078,-75.86299133300781,43.85377883911133,-21.268766403198242,31.81519317626953,0.0
896,-3.92822265625,-2.832275390625,-4.921142578125,7.8015265464782715,-7.053435325622559,4.656488418579102,-24.218324661254883,34.67683410644531,0.0,72.29737854003906,-75.89826202392578,43.87705993652344,-21.253902435302734,31.803329467773438,0.0
901,-3.92529296875,-2.834716796875,-4.91162109375,7.312977313995361,-7.41984748840332,4.56488561630249,-24.268404006958008,34.69004821777344,0.0,72.33394622802734,-75.93536376953125,43.89988327026367,-21.241920471191406,31.7897891998291,0.0
906,-3.928955078125,-2.8330078125,-4.92041015625,7.358778476715088,-7.465648651123047,4.427480697631836,-24.224260330200195,34.68310546875,0.0,72.37074279785156,-75.97269439697266,43.922019958496094,-21.22939109802246,31.77601432800293,0.0
911,-3.927001953125,-2.833740234375,-4.91943359375,7.648854732513428,-7.3740458488464355,4.610687255859375,-24.236553192138672,34.67204666137695,0.0,72.40898895263672,-76.00956726074219,43.945072174072266,-21.215560913085938,31.76265525817871,0.0
916,-3.92919921875,-2.836181640625,-4.916259765625,7.3740458488464355,-7.4809160232543945,4.824427604675293,-24.258808135986328,34.694271087646484,0.0,72.44586181640625,-76.0469741821289,43.96919250488281,-21.20332145690918,31.748992919921875,0.0
921,-3.93212890625,-2.83349609375,-4.913818359375,7.297709941864014,-6.885496139526367,4.778625965118408,-24.238744735717773,34.73059844970703,0.0,72.48235321044922,-76.0813980102539,43.99308395385742,-21.191335678100586,31.738624572753906,0.0
926,-3.931640625,-2.8349609375,-4.912841796875,7.633587837219238,-7.175572395324707,4.778625965118408,-24.25347137451172,34.727806091308594,0.0,72.52052307128906,-76.11727905273438,44.01697540283203,-21.177839279174805,31.72681999206543,0.0
931,-3.930419921875,-2.835693359375,-4.919677734375,7.557251930236816,-7.114503860473633,4.7633585929870605,-24.24341583251953,34.68976593017578,0.0,72.55831146240234,-76.1528549194336,44.04079055786133,-21.164688110351562,31.715051651000977,0.0
936,-3.928955078125,-2.835205078125,-4.913818359375,7.343511581420898,-6.977099418640137,4.931297779083252,-24.258440017700195,34.70490264892578,0.0,72.59503173828125,-76.187744140625,44.06544876098633,-21.152761459350586,31.704120635986328,0.0
941,-3.925537109375,-2.835693359375,-4.919921875,7.221374034881592,-7.099236488342285,4.824427604675293,-24.25314712524414,34.65544509887695,0.0,72.63114166259766,-76.2232437133789,44.089569091796875,-21.141437530517578,31.692224502563477,0.0
946,-3.92822265625,-2.8330078125,-4.921875,7.43511438369751,-7.175572395324707,4.900763511657715,-24.2219181060791,34.672115325927734,0.0,72.66831970214844,-76.25912475585938,44.11407470703125,-21.12883758544922,31.68012046813965,0.0
951,-3.926025390625,-2.8330078125,-4.9150390625,7.572519302368164,-7.114503860473633,4.549618244171143,-24.24479103088379,34.685089111328125,0.0,72.70618438720703,-76.2947006225586,44.13682174682617,-21.115779876708984,31.6684627532959,0.0
957,-3.92529296875,-2.835205078125,-4.920654296875,7.267175674438477,-7.160305500030518,4.687022686004639,-24.24802017211914,34.65193176269531,0.0,72.74978637695312,-76.33766174316406,44.16494369506836,-21.09716033935547,31.649309158325195,0.0
962,-3.92919921875,-2.8330078125,-4.915771484375,7.404580116271973,-7.389312744140625,4.534351348876953,-24.236085891723633,34.70376205444336,0.0,72.78681182861328,-76.3746109008789,44.18761444091797,-21.085065841674805,31.636627197265625,0.0
967,-3.926025390625,-2.83349609375,-4.91259765625,7.465648651123047,-7.404580116271973,4.259541988372803,-24.254995346069336,34.69393539428711,0.0,72.82414245605469,-76.41163635253906,44.20891189575195,-21.07285499572754,31.623838424682617,0.0
972,-3.922607421875,-2.83740234375,-4.912353515625,7.572519302368164,-7.786259651184082,4.473282337188721,-24.292512893676758,34.662357330322266,0.0,72.86200714111328,-76.45056915283203,44.23127746582031,-21.060447692871094,31.608957290649414,0.0
977,-3.927001953125,-2.83349609375,-4.916259765625,7.083969593048096,-7.389312744140625,4.458015441894531,-24.2431583404541,34.685611724853516,0.0,72.89743041992188,-76.48751831054688,44.25356674194336,-21.05012321472168,31.596288681030273,0.0
982,-3.93017578125,-2.836669921875,-4.912353515625,7.4809160232543945,-7.190839767456055,4.656488418579102,-24.270832061767578,34.71577072143555,0.0,72.9348373413086,-76.52347564697266,44.27684783935547,-21.038070678710938,31.584888458251953,0.0
987,-3.9287109375,-2.83740234375,-4.92041015625,7.389312744140625,-7.129770755767822,5.068702220916748,-24.258028030395508,34.67108154296875,0.0,72.97178649902344,-76.55912780761719,44.30219268798828,-21.026412963867188,31.5734806060791,0.0
992,-3.92822265625,-2.83251953125,-4.919921875,7.541984558105469,-6.916030406951904,5.068702220916748,-24.223421096801758,34.68125534057617,0.0,73.0094985961914,-76.59370422363281,44.327537536621094,-21.01376724243164,31.563249588012695,0.0
997,-3.93017578125,-2.830078125,-4.912353515625,7.221374034881592,-7.083969593048096,5.14503812789917,-24.22092056274414,34.73134994506836,0.0,73.04560852050781,-76.6291275024414,44.35326385498047,-21.00274085998535,31.552602767944336,0.0
1002,-3.92724609375,-2.83203125,-4.91015625,7.3740458488464355,-7.114503860473633,4.549618244171143,-24.247806549072266,34.71574020385742,0.0,73.08248138427734,-76.66470336914062,44.37601089477539,-20.99119758605957,31.541715621948242,0.0
1007,-3.928955078125,-2.83251953125,-4.913330078125,7.312977313995361,-7.343511581420898,4.6259541511535645,-24.239408493041992,34.7132453918457,0.0,73.11904907226562,-76.70142364501953,44.399139404296875,-20.979930877685547,31.529706954956055,0.0
1012,-3.929443359375,-2.8330078125,-4.925537109375,7.755725383758545,-7.541984558105469,4.396946430206299,-24.2095890045166,34.66546630859375,0.0,73.15782928466797,-76.7391357421875,44.42112350463867,-20.966276168823242,31.51639175415039,0.0
1017,-3.92529296875,-2.830810546875,-4.917236328125,7.328244209289551,-7.221374034881592,4.656488418579102,-24.223857879638672,34.676273345947266,0.0,73.19447326660156,-76.7752456665039,44.44440460205078,-20.95490837097168,31.504804611206055,0.0
1022,-3.925048828125,-2.8349609375,-4.91162109375,7.2366414070129395,-6.977099418640137,4.4122138023376465,-24.270774841308594,34.687801361083984,0.0,73.23065948486328,-76.81013488769531,44.46646499633789,-20.944393157958984,31.49456024169922,0.0
1027,-3.92822265625,-2.8349609375,-4.905517578125,7.358778476715088,-7.526717662811279,4.549618244171143,-24.280282974243164,34.73448944091797,0.0,73.2674560546875,-76.84777069091797,44.48921203613281,-20.93337631225586,31.481977462768555,0.0
1032,-3.928466796875,-2.83544921875,-4.91162109375,7.160305500030518,-7.175572395324707,4.56488561630249,-24.26718521118164,34.709991455078125,0.0,73.30326080322266,-76.88365173339844,44.51203536987305,-20.923280715942383,31.47100067138672,0.0
1038,-3.928466796875,-2.833251953125,-4.919677734375,7.3740458488464355,-7.511450290679932,4.916030406951904,-24.229095458984375,34.682193756103516,0.0,73.34013366699219,-76.92121124267578,44.536617279052734,-20.911863327026367,31.458181381225586,0.0
1043,-3.9287109375,-2.83544921875,-4.921875,7.557251930236816,-7.312977313995361,4.549618244171143,-24.23935317993164,34.66969680786133,0.0,73.3854751586914,-76.965087890625,44.56391525268555,-20.892221450805664,31.439109802246094,0.0
1048,-3.928466796875,-2.835693359375,-4.919189453125,7.832061290740967,-6.671755790710449,5.206106662750244,-24.248868942260742,34.678436279296875,0.0,73.42463684082031,-76.99844360351562,44.58994674682617,-20.878890991210938,31.43064308166504,0.0
1053,-3.93212890625,-2.83203125,-4.920166015625,7.465648651123047,-7.404580116271973,4.610687255859375,-24.210777282714844,34.70805740356445,0.0,73.46196746826172,-77.03546905517578,44.612998962402344,-20.867143630981445,31.418785095214844,0.0
1058,-3.929443359375,-2.834228515625,-4.916259765625,7.603053569793701,-6.931297779083252,4.5190839767456055,-24.243507385253906,34.70054626464844,0.0,73.49998474121094,-77.07012176513672,44.63559341430664,-20.85500717163086,31.409265518188477,0.0
1063,-3.930419921875,-2.833251953125,-4.917724609375,7.343511581420898,-7.206106662750244,4.885496139526367,-24.230140686035156,34.70351791381836,0.0,73.53670501708984,-77.10615539550781,44.6600227355957,-20.84410285949707,31.398433685302734,0.0
1068,-3.9248046875,-2.8291015625,-4.921875,7.679389476776123,-6.931297779083252,4.732824325561523,-24.19960594177246,34.65797424316406,0.0,73.57510375976562,-77.14080810546875,44.683685302734375,-20.831340789794922,31.38865852355957,0.0
1073,-3.927001953125,-2.8349609375,-4.924560546875,7.328244209289551,-7.022900581359863,4.488549709320068,-24.232139587402344,34.6482048034668,0.0,73.61174774169922,-77.1759262084961,44.70612716674805,-20.82061767578125,31.378387451171875,0.0
1078,-3.925048828125,-2.837158203125,-4.913818359375,7.6946563720703125,-6.870229244232178,4.610687255859375,-24.28154945373535,34.67361831665039,0.0,73.65022277832031,-77.21027374267578,44.72917938232422,-20.808486938476562,31.36910057067871,0.0
1083,-3.930419921875,-2.8330078125,-4.9150390625,7.343511581420898,-7.083969593048096,4.076335906982422,-24.235437393188477,34.715091705322266,0.0,73.68694305419922,-77.24569702148438,44.74956130981445,-20.79779815673828,31.359092712402344,0.0
1088,-3.9296875,-2.835205078125,-4.91748046875,7.755725383758545,-7.251908302307129,4.824427604675293,-24.247127532958984,34.69491195678711,0.0,73.72572326660156,-77.2819595336914,44.773681640625,-20.78519058227539,31.348134994506836,0.0
1093,-3.92578125,-2.83642578125,-4.9130859375,7.755725383758545,-7.328244209289551,4.809160232543945,-24.276397705078125,34.683345794677734,0.0,73.7645034790039,-77.318603515625,44.797725677490234,-20.77285385131836,31.336750030517578,0.0
1098,-3.92822265625,-2.835693359375,-4.917724609375,7.221374034881592,-7.312977313995361,4.885496139526367,-24.25328826904297,34.68276596069336,0.0,73.80061340332031,-77.35517120361328,44.8221549987793,-20.76304817199707,31.325481414794922,0.0
1103,-3.93115234375,-2.83642578125,-4.91455078125,7.70992374420166,-7.053435325622559,4.793893337249756,-24.26104736328125,34.71401596069336,0.0,73.83916473388672,-77.39044189453125,44.84612274169922,-20.750905990600586,31.315780639648438,0.0
1108,-3.929443359375,-2.83251953125,-4.923583984375,7.389312744140625,-6.946564674377441,4.29007625579834,-24.211088180541992,34.67460250854492,0.0,73.87611389160156,-77.42517852783203,44.86757278442383,-20.740032196044922,31.30634880065918,0.0
1113,-3.932373046875,-2.83544921875,-4.924072265625,7.41984748840332,-7.190839767456055,4.56488561630249,-24.22572898864746,34.68568801879883,0.0,73.91321563720703,-77.46113586425781,44.89039611816406,-20.729156494140625,31.295820236206055,0.0
1119,-3.931396484375,-2.832275390625,-4.918701171875,7.404580116271973,-7.14503812789917,4.885496139526367,-24.218076705932617,34.7084846496582,0.0,73.95024108886719,-77.49686431884766,44.914825439453125,-20.718341827392578,31.28572654724121,0.0
1124,-3.927978515625,-2.8369140625,-4.917236328125,8.106870651245117,-7.267175674438477,4.6259541511535645,-24.264347076416016,34.680213928222656,0.0,73.99888610839844,-77.54046630859375,44.94258117675781,-20.696449279785156,31.2677059173584,0.0
1129,-3.928955078125,-2.834716796875,-4.9150390625,7.465648651123047,-6.839694499969482,4.870229244232178,-24.251493453979492,34.70105743408203,0.0,74.03621673583984,-77.57466125488281,44.96693420410156,-20.68581199645996,31.2592716217041,0.0
1134,-3.927978515625,-2.830322265625,-4.918701171875,7.41984748840332,-7.358778476715088,4.900763511657715,-24.210554122924805,34.68976593017578,0.0,74.07331848144531,-77.61145782470703,44.99143981933594,-20.67513656616211,31.248201370239258,0.0
1139,-3.9287109375,-2.83447265625,-4.917724609375,7.618320465087891,-7.190839767456055,4.885496139526367,-24.243013381958008,34.6889762878418,0.0,74.11141204833984,-77.64741516113281,45.015869140625,-20.663759231567383,31.238004684448242,0.0
1144,-3.927490234375,-2.8359375,-4.914794921875,7.511450290679932,-7.41984748840332,4.778625965118408,-24.264501571655273,34.689178466796875,0.0,74.14897155761719,-77.68451690673828,45.03976058959961,-20.65311622619629,31.226709365844727,0.0
1149,-3.927734375,-2.83544921875,-4.915771484375,7.70992374420166,-7.633587837219238,4.534351348876953,-24.2576847076416,34.6879997253418,0.0,74.1875228881836,-77.72268676757812,45.06243133544922,-20.641477584838867,31.214391708374023,0.0
1154,-3.9296875,-2.834716796875,-4.9150390625,7.3740458488464355,-7.450381755828857,4.656488418579102,-24.24993324279785,34.706058502197266,0.0,74.22439575195312,-77.75994110107422,45.08571243286133,-20.63149642944336,31.203170776367188,0.0
1159,-3.930419921875,-2.8349609375,-4.914306640625,7.4809160232543945,-7.022900581359863,4.0916032791137695,-24.252172470092773,34.713478088378906,0.0,74.26180267333984,-77.79505920410156,45.106170654296875,-20.62103843688965,31.19417381286621,0.0
1164,-3.928466796875,-2.83154296875,-4.9140625,7.511450290679932,-7.282442569732666,5.129770755767822,-24.231103897094727,34.7092170715332,0.0,74.29936218261719,-77.83147430419922,45.13182067871094,-20.610313415527344,31.183887481689453,0.0
1169,-3.926513671875,-2.83349609375,-4.912353515625,7.251908302307129,-7.099236488342285,5.007633686065674,-24.254606246948242,34.698272705078125,0.0,74.33562469482422,-77.86697387695312,45.1568603515625,-20.601093292236328,31.174470901489258,0.0
1174,-3.92822265625,-2.8330078125,-4.912841796875,7.496183395385742,-7.328244209289551,4.5190839767456055,-24.2459659576416,34.7090950012207,0.0,74.37310791015625,-77.90361785888672,45.1794548034668,-20.590627670288086,31.164030075073242,0.0
1179,-3.9306640625,-2.83447265625,-4.917236328125,7.72519063949585,-7.221374034881592,4.931297779083252,-24.240158081054688,34.70430374145508,0.0,74.41173553466797,-77.93972778320312,45.2041130065918,-20.579025268554688,31.15412712097168,0.0
1184,-3.927490234375,-2.830322265625,-4.919189453125,7.5877861976623535,-6.687022686004639,4.6259541511535645,-24.21029281616211,34.68443298339844,0.0,74.44967651367188,-77.97315979003906,45.22724151611328,-20.567935943603516,31.14676856994629,0.0
1189,-3.92724609375,-2.8330078125,-4.920166015625,7.297709941864014,-7.053435325622559,4.793893337249756,-24.228540420532227,34.67244338989258,0.0,74.48616790771484,-78.00843048095703,45.2512092590332,-20.5584659576416,31.13752555847168,0.0
1194,-3.924072265625,-2.83642578125,-4.927978515625,7.41984748840332,-7.312977313995361,4.56488561630249,-24.240333557128906,34.610801696777344,0.0,74.52326965332031,-78.04499816894531,45.27403259277344,-20.54850959777832,31.126577377319336,0.0
1200,-3.92578125,-2.830322265625,-4.91455078125,7.312977313995361,-6.977099418640137,4.748091697692871,-24.226272583007812,34.6917610168457,0.0,74.5598373413086,-78.07988739013672,45.29777145385742,-20.539020538330078,31.117935180664062,0.0
1205,-3.93017578125,-2.831298828125,-4.915283203125,7.14503812789917,-7.221374034881592,4.809160232543945,-24.222370147705078,34.71645736694336,0.0,74.60270690917969,-78.12321472167969,45.32662582397461,-20.523353576660156,31.101194381713867,0.0
1210,-3.928955078125,-2.834228515625,-4.911865234375,7.099236488342285,-7.007633686065674,4.717557430267334,-24.256250381469727,34.7152099609375,0.0,74.6382064819336,-78.15825653076172,45.35021209716797,-20.51533317565918,31.092761993408203,0.0
1215,-3.926025390625,-2.834716796875,-4.91650390625,7.43511438369751,-7.206106662750244,4.4122138023376465,-24.253826141357422,34.6750602722168,0.0,74.67538452148438,-78.19429016113281,45.37227249145508,-20.505651473999023,31.083080291748047,0.0
1220,-3.9296875,-2.832275390625,-4.92236328125,7.41984748840332,-7.114503860473633,4.488549709320068,-24.21196746826172,34.68183517456055,0.0,74.71248626708984,-78.22986602783203,45.39471435546875,-20.495779037475586,31.073942184448242,0.0
1225,-3.931640625,-2.83349609375,-4.913330078125,7.679389476776123,-7.083969593048096,4.671755790710449,-24.2410831451416,34.72926712036133,0.0,74.75088500976562,-78.26528930664062,45.41807174682617,-20.4848690032959,31.06533432006836,0.0
1230,-3.927490234375,-2.837890625,-4.921875,7.4809160232543945,-6.961832046508789,4.427480697631836,-24.260414123535156,34.655616760253906,0.0,74.78829193115234,-78.30010223388672,45.440208435058594,-20.475130081176758,31.056827545166016,0.0
1235,-3.9287109375,-2.836669921875,-4.916748046875,7.190839767456055,-6.7633585929870605,4.824427604675293,-24.262243270874023,34.68778610229492,0.0,74.82424926757812,-78.33391571044922,45.46432876586914,-20.46688461303711,31.049570083618164,0.0
1240,-3.927734375,-2.836181640625,-4.9169921875,7.679389476776123,-6.641221523284912,5.083969593048096,-24.259973526000977,34.6812744140625,0.0,74.8626480102539,-78.36711883544922,45.489749908447266,-20.45622444152832,31.04289436340332,0.0
1245,-3.927978515625,-2.8349609375,-4.91455078125,7.251908302307129,-6.961832046508789,5.129770755767822,-24.25672149658203,34.69581604003906,0.0,74.89891052246094,-78.40193176269531,45.51539993286133,-20.447708129882812,31.03474998474121,0.0
1250,-3.92626953125,-2.83154296875,-4.9140625,7.664122104644775,-7.068702220916748,4.381679534912109,-24.235780715942383,34.694217681884766,0.0,74.9372329711914,-78.4372787475586,45.53730773925781,-20.43702507019043,31.026092529296875,0.0
1255,-3.924560546875,-2.829345703125,-4.9130859375,7.4809160232543945,-7.358778476715088,4.244274616241455,-24.225372314453125,34.69172668457031,0.0,74.97463989257812,-78.47407531738281,45.558528900146484,-20.427221298217773,31.016010284423828,0.0
1260,-3.927001953125,-2.836669921875,-4.921630859375,7.450381755828857,-7.404580116271973,4.106870174407959,-24.252870559692383,34.656158447265625,0.0,75.01189422607422,-78.51110076904297,45.579063415527344,-20.417808532714844,31.0054874420166,0.0
1265,-3.9287109375,-2.8330078125,-4.917236328125,7.465648651123047,-7.404580116271973,4.488549709320068,-24.233226776123047,34.69443130493164,0.0,75.04922485351562,-78.54812622070312,45.601505279541016,-20.40821647644043,30.99528694152832,0.0
1270,-3.927978515625,-2.83544921875,-4.90576171875,7.358778476715088,-7.8015265464782715,4.503816604614258,-24.283851623535156,34.73066711425781,0.0,75.08602142333984,-78.5871353149414,45.6240234375,-20.39955711364746,30.983423233032227,0.0
1275,-3.927001953125,-2.836669921875,-4.9189453125,7.618320465087891,-7.41984748840332,5.007633686065674,-24.260025024414062,34.667137145996094,0.0,75.12411499023438,-78.62423706054688,45.64906311035156,-20.38947296142578,30.973052978515625,0.0
1281,-3.92529296875,-2.831787109375,-4.91259765625,7.465648651123047,-7.038167953491211,4.671755790710449,-24.24361228942871,34.692970275878906,0.0,75.16144561767578,-78.65943145751953,45.672420501708984,-20.38007164001465,30.964811325073242,0.0
1286,-3.9287109375,-2.831787109375,-4.912109375,7.221374034881592,-7.251908302307129,4.885496139526367,-24.237632751464844,34.71831130981445,0.0,75.20477294921875,-78.70294189453125,45.70173263549805,-20.36478614807129,30.948593139648438,0.0
1291,-3.926513671875,-2.836181640625,-4.92236328125,7.526717662811279,-6.961832046508789,4.839694499969482,-24.248260498046875,34.65098190307617,0.0,75.2424087524414,-78.73775482177734,45.725929260253906,-20.355310440063477,30.94062042236328,0.0
1296,-3.927001953125,-2.83251953125,-4.916259765625,7.389312744140625,-6.900763511657715,4.916030406951904,-24.235763549804688,34.68791580200195,0.0,75.27935791015625,-78.77225494384766,45.750511169433594,-20.346464157104492,30.933244705200195,0.0
1301,-3.927734375,-2.833984375,-4.92041015625,7.297709941864014,-6.916030406951904,4.824427604675293,-24.234243392944336,34.6724739074707,0.0,75.31584930419922,-78.80683135986328,45.77463150024414,-20.338096618652344,30.925708770751953,0.0
1306,-3.9306640625,-2.834716796875,-4.914306640625,6.870229244232178,-7.206106662750244,4.473282337188721,-24.24980354309082,34.715721130371094,0.0,75.3501968383789,-78.84286499023438,45.7969970703125,-20.331995010375977,30.917070388793945,0.0
1311,-3.930419921875,-2.83349609375,-4.9169921875,7.129770755767822,-6.916030406951904,4.213740348815918,-24.233936309814453,34.70594024658203,0.0,75.38584899902344,-78.87744140625,45.81806564331055,-20.324508666992188,30.909835815429688,0.0
1316,-3.927490234375,-2.8291015625,-4.91845703125,7.8015265464782715,-7.297709941864014,4.58015251159668,-24.2029972076416,34.6903076171875,0.0,75.42485809326172,-78.91393280029297,45.840965270996094,-20.313491821289062,30.900619506835938,0.0
1321,-3.927490234375,-2.835693359375,-4.91259765625,7.633587837219238,-7.389312744140625,4.6259541511535645,-24.268510818481445,34.69874954223633,0.0,75.46302795410156,-78.95088195800781,45.86409378051758,-20.3038272857666,30.891048431396484,0.0
1326,-3.926025390625,-2.833740234375,-4.9169921875,7.175572395324707,-7.511450290679932,4.839694499969482,-24.245132446289062,34.67536926269531,0.0,75.49890899658203,-78.98844146728516,45.88829040527344,-20.29631233215332,30.880746841430664,0.0
1331,-3.928955078125,-2.83154296875,-4.90771484375,7.633587837219238,-7.083969593048096,4.3053436279296875,-24.24696922302246,34.73857498168945,0.0,75.53707885742188,-79.02386474609375,45.90981674194336,-20.286563873291016,30.873065948486328,0.0
1336,-3.927978515625,-2.83447265625,-4.91552734375,7.511450290679932,-7.389312744140625,5.007633686065674,-24.250423431396484,34.692970275878906,0.0,75.57463836669922,-79.0608139038086,45.93485641479492,-20.277488708496094,30.86357307434082,0.0
1341,-3.929443359375,-2.831787109375,-4.92333984375,7.526717662811279,-7.206106662750244,4.534351348876953,-24.206195831298828,34.67732238769531,0.0,75.61227416992188,-79.09684753417969,45.95752716064453,-20.268062591552734,30.854921340942383,0.0
1346,-3.930908203125,-2.834228515625,-4.917724609375,7.496183395385742,-7.053435325622559,4.916030406951904,-24.236492156982422,34.70454406738281,0.0,75.6497573852539,-79.13211822509766,45.98210906982422,-20.259044647216797,30.847257614135742,0.0
1351,-3.927734375,-2.83154296875,-4.909423828125,7.496183395385742,-7.175572395324707,4.809160232543945,-24.245018005371094,34.72323226928711,0.0,75.68724060058594,-79.16799926757812,46.00615310668945,-20.250125885009766,30.839149475097656,0.0
1356,-3.9296875,-2.827880859375,-4.914306640625,7.358778476715088,-6.732824325561523,4.824427604675293,-24.200119018554688,34.725196838378906,0.0,75.72403717041016,-79.20166015625,46.0302734375,-20.241607666015625,30.83328628540039,0.0
1361,-3.931640625,-2.8330078125,-4.9169921875,7.679389476776123,-7.297709941864014,4.503816604614258,-24.227643966674805,34.71541976928711,0.0,75.76243591308594,-79.23815155029297,46.052791595458984,-20.23172950744629,30.824565887451172,0.0
1367,-3.929931640625,-2.83154296875,-4.910888671875,7.557251930236816,-7.129770755767822,4.29007625579834,-24.236433029174805,34.73222732543945,0.0,75.80777740478516,-79.28092956542969,46.07853317260742,-20.21514129638672,30.80983543395996,0.0
1372,-3.927490234375,-2.831298828125,-4.919189453125,7.541984558105469,-7.297709941864014,4.671755790710449,-24.21768569946289,34.682132720947266,0.0,75.84548950195312,-79.31742095947266,46.101890563964844,-20.206090927124023,30.80107307434082,0.0
1377,-3.9287109375,-2.8369140625,-4.919189453125,7.41984748840332,-7.41984748840332,4.56488561630249,-24.257585525512695,34.677223205566406,0.0,75.8825912475586,-79.35452270507812,46.12471389770508,-20.197969436645508,30.79170799255371,0.0
1382,-3.927490234375,-2.834716796875,-4.91162109375,7.70992374420166,-7.633587837219238,4.259541988372803,-24.263721466064453,34.705055236816406,0.0,75.921142578125,-79.39269256591797,46.14601135253906,-20.18848419189453,30.781522750854492,0.0
1387,-3.929931640625,-2.83544921875,-4.920166015625,7.70992374420166,-7.282442569732666,4.549618244171143,-24.24130630493164,34.68501281738281,0.0,75.9596939086914,-79.42910766601562,46.168758392333984,-20.178882598876953,30.772987365722656,0.0
1392,-3.923828125,-2.834716796875,-4.914794921875,7.14503812789917,-6.885496139526367,4.702290058135986,-24.263059616088867,34.667049407958984,0.0,75.99542236328125,-79.46353149414062,46.19226837158203,-20.172283172607422,30.766332626342773,0.0
1397,-3.9267578125,-2.836181640625,-4.9150390625,7.557251930236816,-7.14503812789917,5.083969593048096,-24.26725959777832,34.68260192871094,0.0,76.03321075439453,-79.49925994873047,46.217689514160156,-20.16368865966797,30.75852394104004,0.0
1402,-3.931884765625,-2.83251953125,-4.921630859375,7.648854732513428,-7.297709941864014,4.702290058135986,-24.211097717285156,34.69924545288086,0.0,76.07145690917969,-79.53575134277344,46.2411994934082,-20.154281616210938,30.750104904174805,0.0
1407,-3.925537109375,-2.83447265625,-4.9072265625,7.328244209289551,-7.389312744140625,4.85496187210083,-24.277759552001953,34.710296630859375,0.0,76.10810089111328,-79.57270050048828,46.265472412109375,-20.1469783782959,30.74134635925293,0.0
1412,-3.927734375,-2.83544921875,-4.9130859375,7.3740458488464355,-7.14503812789917,5.282442569732666,-24.264841079711914,34.69899368286133,0.0,76.14497375488281,-79.60842895507812,46.29188537597656,-20.139385223388672,30.733762741088867,0.0
1417,-3.927490234375,-2.83349609375,-4.9189453125,7.3740458488464355,-7.129770755767822,4.809160232543945,-24.234968185424805,34.67795181274414,0.0,76.18184661865234,-79.64408111572266,46.3159294128418,-20.13161277770996,30.726137161254883,0.0
1422,-3.92724609375,-2.832763671875,-4.912353515625,7.618320465087891,-7.190839767456055,4.7633585929870605,-24.247499465942383,34.70500183105469,0.0,76.21994018554688,-79.68003845214844,46.339744567871094,-20.12274742126465,30.71843147277832,0.0
1427,-3.9267578125,-2.834228515625,-4.91455078125,7.5877861976623535,-7.496183395385742,4.534351348876953,-24.25377655029297,34.689212799072266,0.0,76.25788116455078,-79.71752166748047,46.3624153137207,-20.114118576049805,30.709131240844727,0.0
1432,-3.9296875,-2.83056640625,-4.91796875,7.816793918609619,-7.3740458488464355,4.6259541511535645,-24.21072006225586,34.703853607177734,0.0,76.29696655273438,-79.75439453125,46.38554382324219,-20.104089736938477,30.70058250427246,0.0
1437,-3.927734375,-2.8330078125,-4.918212890625,7.526717662811279,-7.43511438369751,4.473282337188721,-24.232702255249023,34.68376541137695,0.0,76.33460235595703,-79.79157257080078,46.40790939331055,-20.095703125,30.69162940979004,0.0
1442,-3.925048828125,-2.835693359375,-4.919189453125,7.358778476715088,-7.068702220916748,4.595419883728027,-24.25613784790039,34.65510559082031,0.0,76.37139892578125,-79.82691955566406,46.430885314941406,-20.08835220336914,30.684337615966797,0.0
1448,-3.92919921875,-2.83544921875,-4.91943359375,7.312977313995361,-7.190839767456055,4.809160232543945,-24.244813919067383,34.683013916015625,0.0,76.41527557373047,-79.87006378173828,46.459739685058594,-20.073999404907227,30.66960334777832,0.0
1453,-3.92919921875,-2.832763671875,-4.921875,7.450381755828857,-7.496183395385742,4.534351348876953,-24.217998504638672,34.679351806640625,0.0,76.45252990722656,-79.90754699707031,46.4824104309082,-20.066116333007812,30.66054916381836,0.0
1458,-3.928955078125,-2.8310546875,-4.919921875,7.129770755767822,-7.053435325622559,4.610687255859375,-24.210777282714844,34.68970489501953,0.0,76.4881820678711,-79.94281768798828,46.505462646484375,-20.0598087310791,30.653810501098633,0.0
1463,-3.9306640625,-2.83349609375,-4.921630859375,7.282442569732666,-6.778625965118408,4.961832046508789,-24.221078872680664,34.688621520996094,0.0,76.52459716796875,-79.9767074584961,46.5302734375,-20.052839279174805,30.648452758789062,0.0
1468,-3.927734375,-2.838134765625,-4.917724609375,7.465648651123047,-7.007633686065674,4.687022686004639,-24.272802352905273,34.67367172241211,0.0,76.56192779541016,-80.01174926757812,46.553707122802734,-20.04534912109375,30.64187240600586,0.0
1473,-3.9287109375,-2.83056640625,-4.91796875,7.343511581420898,-7.038167953491211,4.473282337188721,-24.21279525756836,34.69718933105469,0.0,76.59864807128906,-80.04694366455078,46.576072692871094,-20.038076400756836,30.635330200195312,0.0
1478,-3.92822265625,-2.83447265625,-4.91943359375,7.43511438369751,-7.175572395324707,4.85496187210083,-24.239500045776367,34.67864990234375,0.0,76.63582611083984,-80.08282470703125,46.600345611572266,-20.03056526184082,30.628002166748047,0.0
1483,-3.92236328125,-2.83251953125,-4.91552734375,7.343511581420898,-7.007633686065674,4.824427604675293,-24.24758529663086,34.65922927856445,0.0,76.67254638671875,-80.11786651611328,46.62446594238281,-20.023597717285156,30.62140464782715,0.0
1488,-3.927734375,-2.834228515625,-4.921630859375,7.221374034881592,-7.297709941864014,4.793893337249756,-24.23284149169922,34.66690444946289,0.0,76.70865631103516,-80.15435791015625,46.648433685302734,-20.01716423034668,30.613445281982422,0.0
1493,-3.92919921875,-2.833984375,-4.9189453125,7.526717662811279,-7.297709941864014,4.7633585929870605,-24.235029220581055,34.6884651184082,0.0,76.74629211425781,-80.19084930419922,46.67224884033203,-20.009252548217773,30.60567283630371,0.0
1498,-3.926513671875,-2.836669921875,-4.91455078125,7.8015265464782715,-7.267175674438477,4.427480697631836,-24.27277946472168,34.68177795410156,0.0,76.7853012084961,-80.22718811035156,46.69438552856445,-20.000276565551758,30.59804344177246,0.0
1503,-3.9296875,-2.8330078125,-4.917236328125,7.70992374420166,-7.129770755767822,4.595419883728027,-24.231149673461914,34.70109558105469,0.0,76.8238525390625,-80.2628402709961,46.71736145019531,-19.99150848388672,30.591264724731445,0.0
1508,-3.929443359375,-2.831787109375,-4.916259765625,7.526717662811279,-7.129770755767822,4.56488561630249,-24.225027084350586,34.70630645751953,0.0,76.86148834228516,-80.29849243164062,46.74018478393555,-19.9836483001709,30.584550857543945,0.0
1513,-3.926025390625,-2.8349609375,-4.91650390625,7.450381755828857,-7.312977313995361,4.793893337249756,-24.255674362182617,34.67448425292969,0.0,76.89874267578125,-80.3350601196289,46.76415252685547,-19.976415634155273,30.576732635498047,0.0
1518,-3.93115234375,-2.833984375,-4.9140625,7.496183395385742,-6.977099418640137,4.809160232543945,-24.24386978149414,34.72178268432617,0.0,76.93622589111328,-80.36994934082031,46.7881965637207,-19.96890640258789,30.570947647094727,0.0
1523,-3.929443359375,-2.83544921875,-4.91552734375,7.389312744140625,-7.206106662750244,4.931297779083252,-24.254695892333984,34.70066452026367,0.0,76.97317504882812,-80.4059829711914,46.8128547668457,-19.9620361328125,30.563901901245117,0.0
1529,-3.9287109375,-2.83837890625,-4.91259765625,7.282442569732666,-7.053435325622559,4.977099418640137,-24.286237716674805,34.70073318481445,0.0,77.0168685913086,-80.44830322265625,46.842716217041016,-19.94879722595215,30.550722122192383,0.0
1534,-3.92822265625,-2.833740234375,-4.91748046875,7.3740458488464355,-7.14503812789917,4.931297779083252,-24.239158630371094,34.68836975097656,0.0,77.05374145507812,-80.4840316772461,46.867374420166016,-19.942079544067383,30.544078826904297,0.0
1539,-3.926513671875,-2.832275390625,-4.919677734375,7.557251930236816,-6.900763511657715,4.335877895355225,-24.225852966308594,34.671165466308594,0.0,77.0915298461914,-80.5185317993164,46.88905334472656,-19.934389114379883,30.538557052612305,0.0
1544,-3.927978515625,-2.832763671875,-4.914794921875,7.41984748840332,-7.297709941864014,4.839694499969482,-24.23943519592285,34.70000457763672,0.0,77.12863159179688,-80.55502319335938,46.91324996948242,-19.927509307861328,30.53128433227539,0.0
1549,-3.92578125,-2.834228515625,-4.91943359375,7.251908302307129,-7.129770755767822,4.702290058135986,-24.242843627929688,34.662559509277344,0.0,77.1648941040039,-80.5906753540039,46.93675994873047,-19.921518325805664,30.52461814880371,0.0
1554,-3.92919921875,-2.83349609375,-4.919677734375,7.832061290740967,-7.404580116271973,4.549618244171143,-24.229385375976562,34.68661880493164,0.0,77.20405578613281,-80.62770080566406,46.95950698852539,-19.912574768066406,30.516782760620117,0.0
1559,-3.926025390625,-2.83349609375,-4.9140625,7.465648651123047,-7.6946563720703125,4.4122138023376465,-24.25109100341797,34.68793487548828,0.0,77.24138641357422,-80.66617584228516,46.9815673828125,-19.9056453704834,30.50755500793457,0.0
1564,-3.928955078125,-2.835693359375,-4.921142578125,7.3740458488464355,-7.511450290679932,4.1984734535217285,-24.242630004882812,34.67378234863281,0.0,77.27825927734375,-80.7037353515625,47.002559661865234,-19.899141311645508,30.499183654785156,0.0
1569,-3.927001953125,-2.83349609375,-4.91650390625,7.251908302307129,-7.068702220916748,4.778625965118408,-24.242507934570312,34.68461227416992,0.0,77.31452178955078,-80.73908233642578,47.026451110839844,-19.893272399902344,30.493127822875977,0.0
1574,-3.9296875,-2.83544921875,-4.918212890625,7.282442569732666,-7.389312744140625,4.152671813964844,-24.247024536132812,34.69133758544922,0.0,77.35093688964844,-80.77603149414062,47.04721450805664,-19.887306213378906,30.485551834106445,0.0
1579,-3.930908203125,-2.83642578125,-4.91748046875,7.251908302307129,-6.717557430267334,4.839694499969482,-24.253765106201172,34.70035934448242,0.0,77.38719940185547,-80.80961608886719,47.0714111328125,-19.881563186645508,30.481409072875977,0.0
1584,-3.930419921875,-2.833251953125,-4.91162109375,7.251908302307129,-6.900763511657715,4.824427604675293,-24.24638557434082,34.728515625,0.0,77.4234619140625,-80.8441162109375,47.09553146362305,-19.875791549682617,30.476564407348633,0.0
1589,-3.9326171875,-2.835693359375,-4.90966796875,7.511450290679932,-7.129770755767822,5.267175674438477,-24.2653865814209,34.74574279785156,0.0,77.46102142333984,-80.87976837158203,47.12186813354492,-19.868885040283203,30.470720291137695,0.0
1594,-3.928466796875,-2.834716796875,-4.916259765625,7.618320465087891,-6.992366313934326,5.099236488342285,-24.24928092956543,34.69272994995117,0.0,77.49911499023438,-80.91473388671875,47.14736557006836,-19.86136817932129,30.4652156829834,0.0
1599,-3.92578125,-2.833740234375,-4.912353515625,7.8015265464782715,-7.312977313995361,4.946564674377441,-24.258014678955078,34.692691802978516,0.0,77.53812408447266,-80.95130157470703,47.17210006713867,-19.853036880493164,30.458139419555664,0.0
1604,-3.9287109375,-2.833984375,-4.918701171875,7.572519302368164,-6.992366313934326,4.717557430267334,-24.236717224121094,34.68613052368164,0.0,77.57598876953125,-80.98626708984375,47.19568634033203,-19.845735549926758,30.45264434814453,0.0
1610,-3.923583984375,-2.83740234375,-4.909423828125,7.70992374420166,-7.541984558105469,4.656488418579102,-24.298255920410156,34.6810188293457,0.0,77.62224578857422,-81.0315170288086,47.22362518310547,-19.830642700195312,30.437000274658203,0.0
1615,-3.9248046875,-2.83203125,-4.92041015625,7.41984748840332,-7.3740458488464355,4.5190839767456055,-24.22568702697754,34.657073974609375,0.0,77.65934753417969,-81.06838989257812,47.246219635009766,-19.824230194091797,30.429603576660156,0.0
1620,-3.92529296875,-2.831298828125,-4.923095703125,7.755725383758545,-7.6946563720703125,4.351145267486572,-24.211956024169922,34.651145935058594,0.0,77.69812774658203,-81.10686492919922,47.267974853515625,-19.816083908081055,30.420610427856445,0.0
1625,-3.92431640625,-2.836181640625,-4.91796875,7.312977313995361,-7.160305500030518,4.5190839767456055,-24.264646530151367,34.65394592285156,0.0,77.73469543457031,-81.14266967773438,47.29056930541992,-19.81053924560547,30.414337158203125,0.0
1630,-3.93115234375,-2.8349609375,-4.9140625,7.541984558105469,-7.496183395385742,4.56488561630249,-24.251262664794922,34.71947479248047,0.0,77.77240753173828,-81.1801528930664,47.313392639160156,-19.803787231445312,30.406875610351562,0.0
1635,-3.927734375,-2.83447265625,-4.921142578125,7.4809160232543945,-7.068702220916748,5.007633686065674,-24.23598861694336,34.66832733154297,0.0,77.809814453125,-81.21549987792969,47.33843231201172,-19.797264099121094,30.401220321655273,0.0
1640,-3.9306640625,-2.829345703125,-4.91357421875,7.648854732513428,-7.022900581359863,5.068702220916748,-24.21108627319336,34.731407165527344,0.0,77.84806060791016,-81.25061798095703,47.36377716064453,-19.789764404296875,30.396251678466797,0.0
1645,-3.928955078125,-2.83447265625,-4.9130859375,7.404580116271973,-7.038167953491211,4.3053436279296875,-24.254846572875977,34.709632873535156,0.0,77.88508605957031,-81.28581237792969,47.38530349731445,-19.783815383911133,30.391075134277344,0.0
1650,-3.927978515625,-2.829833984375,-4.92333984375,7.4809160232543945,-6.7633585929870605,5.190839767456055,-24.194522857666016,34.67192459106445,0.0,77.92249298095703,-81.31962585449219,47.411258697509766,-19.777095794677734,30.38702392578125,0.0
1655,-3.929443359375,-2.833251953125,-4.91845703125,7.206106662750244,-6.900763511657715,4.58015251159668,-24.230266571044922,34.69385528564453,0.0,77.95852661132812,-81.3541259765625,47.43415832519531,-19.77202033996582,30.38245391845703,0.0
1660,-3.927734375,-2.831787109375,-4.921142578125,7.679389476776123,-7.343511581420898,4.6259541511535645,-24.215665817260742,34.674652099609375,0.0,77.9969253540039,-81.3908462524414,47.4572868347168,-19.76451301574707,30.37557029724121,0.0
1665,-3.92822265625,-2.8349609375,-4.91259765625,7.4809160232543945,-7.297709941864014,5.114503860473633,-24.26140594482422,34.70547866821289,0.0,78.03433227539062,-81.42733764648438,47.48286056518555,-19.758342742919922,30.369157791137695,0.0
1670,-3.930419921875,-2.83642578125,-4.9140625,7.5877861976623535,-6.946564674377441,4.641221523284912,-24.26390838623047,34.71101760864258,0.0,78.07227325439453,-81.46207427978516,47.506065368652344,-19.751686096191406,30.364559173583984,0.0
1675,-3.92919921875,-2.831787109375,-4.92041015625,7.679389476776123,-7.41984748840332,4.27480936050415,-24.21450424194336,34.68764877319336,0.0,78.11067199707031,-81.49917602539062,47.52743911743164,-19.744266510009766,30.357465744018555,0.0
1680,-3.927001953125,-2.83447265625,-4.915283203125,7.267175674438477,-7.633587837219238,4.366412162780762,-24.25315284729004,34.68730163574219,0.0,78.14701080322266,-81.53734588623047,47.54927062988281,-19.73919677734375,30.34934425354004,0.0
1685,-3.93017578125,-2.83251953125,-4.91357421875,7.389312744140625,-7.114503860473633,5.038167953491211,-24.236160278320312,34.720577239990234,0.0,78.1839599609375,-81.57292175292969,47.574462890625,-19.733423233032227,30.344072341918945,0.0
1691,-3.928466796875,-2.832763671875,-4.9208984375,7.404580116271973,-7.068702220916748,4.381679534912109,-24.222150802612305,34.67835235595703,0.0,78.22098541259766,-81.60826873779297,47.596370697021484,-19.727502822875977,30.33875846862793,0.0
1696,-3.928955078125,-2.833984375,-4.922119140625,7.297709941864014,-7.129770755767822,4.885496139526367,-24.227102279663086,34.67381286621094,0.0,78.2647705078125,-81.65104675292969,47.62568283081055,-19.71501350402832,30.32613754272461,0.0
1701,-3.9267578125,-2.83251953125,-4.915283203125,7.190839767456055,-6.870229244232178,4.916030406951904,-24.23888397216797,34.69024658203125,0.0,78.30072784423828,-81.68539428710938,47.650264739990234,-19.71045684814453,30.322071075439453,0.0
1706,-3.930908203125,-2.835693359375,-4.92138671875,7.633587837219238,-6.7633585929870605,4.58015251159668,-24.237829208374023,34.68610763549805,0.0,78.33889770507812,-81.71920776367188,47.67316436767578,-19.70370864868164,30.318519592285156,0.0
1711,-3.92431640625,-2.83447265625,-4.921875,7.572519302368164,-6.748091697692871,4.458015441894531,-24.241300582885742,34.64200210571289,0.0,78.37676239013672,-81.75294494628906,47.69545364379883,-19.69732093811035,30.31475257873535,0.0
1716,-3.9267578125,-2.834228515625,-4.915771484375,7.465648651123047,-6.992366313934326,4.549618244171143,-24.25052261352539,34.6842155456543,0.0,78.41409301757812,-81.78791046142578,47.71820068359375,-19.69155502319336,30.310073852539062,0.0
1721,-3.929443359375,-2.836669921875,-4.920166015625,7.755725383758545,-7.389312744140625,4.4122138023376465,-24.2515811920166,34.678802490234375,0.0,78.45287322998047,-81.82485961914062,47.74026107788086,-19.684383392333984,30.30340576171875,0.0
1726,-3.927490234375,-2.833251953125,-4.912841796875,7.450381755828857,-7.526717662811279,4.809160232543945,-24.24937629699707,34.70351791381836,0.0,78.49012756347656,-81.86249542236328,47.764305114746094,-19.678747177124023,30.29625701904297,0.0
1731,-3.930908203125,-2.832763671875,-4.915771484375,7.41984748840332,-7.404580116271973,4.56488561630249,-24.230602264404297,34.715999603271484,0.0,78.52722930908203,-81.89952087402344,47.78712844848633,-19.67315673828125,30.289836883544922,0.0
1736,-3.92919921875,-2.834716796875,-4.9169921875,7.3740458488464355,-7.43511438369751,4.366412162780762,-24.245771408081055,34.69472885131836,0.0,78.56410217285156,-81.93669891357422,47.8089599609375,-19.667922973632812,30.28314971923828,0.0
1741,-3.92431640625,-2.833251953125,-4.919677734375,7.206106662750244,-6.992366313934326,4.6259541511535645,-24.2379150390625,34.65386199951172,0.0,78.60013580322266,-81.97166442871094,47.832088470458984,-19.663494110107422,30.278413772583008,0.0
1746,-3.927001953125,-2.83740234375,-4.911376953125,7.43511438369751,-6.992366313934326,4.824427604675293,-24.285747528076172,34.69636917114258,0.0,78.63731384277344,-82.00662994384766,47.85620880126953,-19.65827178955078,30.273988723754883,0.0
1751,-3.92626953125,-2.838134765625,-4.92041015625,7.358778476715088,-6.885496139526367,4.809160232543945,-24.268760681152344,34.65269470214844,0.0,78.67411041259766,-82.04105377197266,47.880252838134766,-19.65333366394043,30.269811630249023,0.0
1756,-3.92724609375,-2.833984375,-4.920654296875,7.4809160232543945,-7.175572395324707,4.717557430267334,-24.23463249206543,34.66814422607422,0.0,78.71151733398438,-82.07693481445312,47.903839111328125,-19.64757537841797,30.264318466186523,0.0
1761,-3.923583984375,-2.83349609375,-4.911865234375,7.190839767456055,-7.053435325622559,4.5190839767456055,-24.262149810791016,34.68025588989258,0.0,78.74747467041016,-82.1122055053711,47.92643356323242,-19.643474578857422,30.259538650512695,0.0
1766,-3.925537109375,-2.83251953125,-4.91845703125,7.3740458488464355,-7.083969593048096,4.977099418640137,-24.233028411865234,34.668914794921875,0.0,78.78434753417969,-82.14762878417969,47.95132064819336,-19.63827896118164,30.25455093383789,0.0
1772,-3.925537109375,-2.830078125,-4.9228515625,7.41984748840332,-7.557251930236816,4.56488561630249,-24.202848434448242,34.656681060791016,0.0,78.82144927978516,-82.18541717529297,47.974143981933594,-19.632671356201172,30.247150421142578,0.0
1777,-3.93017578125,-2.830322265625,-4.916015625,7.618320465087891,-7.251908302307129,4.702290058135986,-24.213027954101562,34.715763092041016,0.0,78.86715698242188,-82.22892761230469,48.002357482910156,-19.618698120117188,30.23459243774414,0.0
1782,-3.930419921875,-2.8349609375,-4.9169921875,7.450381755828857,-6.961832046508789,4.442748069763184,-24.24502182006836,34.702484130859375,0.0,78.90441131591797,-82.26374053955078,48.02457046508789,-19.613426208496094,30.23065948486328,0.0
1787,-3.92333984375,-2.836181640625,-4.916748046875,7.190839767456055,-7.129770755767822,4.351145267486572,-24.26997947692871,34.65226745605469,0.0,78.94036865234375,-82.29939270019531,48.04632568359375,-19.609638214111328,30.225563049316406,0.0
1792,-3.93212890625,-2.832763671875,-4.9150390625,7.343511581420898,-7.572519302368164,4.702290058135986,-24.22995376586914,34.72732925415039,0.0,78.97708892822266,-82.3372573852539,48.0698356628418,-19.604827880859375,30.21880531311035,0.0
1797,-3.9267578125,-2.83447265625,-4.917724609375,7.786259651184082,-6.931297779083252,4.458015441894531,-24.247167587280273,34.67564392089844,0.0,79.01602172851562,-82.37191009521484,48.092124938964844,-19.597959518432617,30.21491050720215,0.0
1802,-3.925537109375,-2.835205078125,-4.911376953125,7.465648651123047,-7.404580116271973,4.885496139526367,-24.272233963012695,34.69156265258789,0.0,79.05335235595703,-82.408935546875,48.116554260253906,-19.59288787841797,30.20878791809082,0.0
1807,-3.92919921875,-2.831298828125,-4.916015625,7.603053569793701,-7.099236488342285,4.6259541511535645,-24.222497940063477,34.70679473876953,0.0,79.09136962890625,-82.4444351196289,48.13968276977539,-19.586814880371094,30.204317092895508,0.0
1812,-3.93017578125,-2.837158203125,-4.910400390625,7.740458011627197,-7.389312744140625,4.534351348876953,-24.279733657836914,34.72261428833008,0.0,79.13007354736328,-82.48138427734375,48.162353515625,-19.580480575561523,30.198532104492188,0.0
1817,-3.927001953125,-2.834228515625,-4.9140625,7.267175674438477,-7.099236488342285,4.56488561630249,-24.25455665588379,34.69287872314453,0.0,79.16641235351562,-82.51688385009766,48.185176849365234,-19.576356887817383,30.194011688232422,0.0
1822,-3.931640625,-2.83251953125,-4.912841796875,7.312977313995361,-7.007633686065674,4.488549709320068,-24.2349910736084,34.733577728271484,0.0,79.2029800415039,-82.55192565917969,48.207618713378906,-19.57188606262207,30.190244674682617,0.0
1827,-3.9287109375,-2.832763671875,-4.91650390625,7.328244209289551,-6.961832046508789,4.916030406951904,-24.233327865600586,34.69800567626953,0.0,79.2396240234375,-82.58673858642578,48.232200622558594,-19.567346572875977,30.18647575378418,0.0
1832,-3.92822265625,-2.83154296875,-4.91650390625,7.190839767456055,-7.328244209289551,4.442748069763184,-24.22512435913086,34.69755172729492,0.0,79.27558135986328,-82.62338256835938,48.25441360473633,-19.563453674316406,30.180896759033203,0.0
1837,-3.930419921875,-2.8330078125,-4.921630859375,7.282442569732666,-7.328244209289551,4.7633585929870605,-24.21790313720703,34.68810272216797,0.0,79.31199645996094,-82.66002655029297,48.278228759765625,-19.559072494506836,30.17527961730957,0.0
1842,-3.9296875,-2.832275390625,-4.9140625,7.526717662811279,-7.343511581420898,4.671755790710449,-24.234050750732422,34.7158203125,0.0,79.3496322631836,-82.69674682617188,48.30158615112305,-19.553604125976562,30.169803619384766,0.0
1847,-3.92626953125,-2.833740234375,-4.917724609375,7.312977313995361,-7.328244209289551,4.259541988372803,-24.24266242980957,34.67403793334961,0.0,79.38619995117188,-82.73339080810547,48.32288360595703,-19.54928207397461,30.16414451599121,0.0
1853,-3.92431640625,-2.833251953125,-4.91455078125,7.526717662811279,-7.526717662811279,4.6259541511535645,-24.25157928466797,34.674842834472656,0.0,79.42383575439453,-82.77102661132812,48.346012115478516,-19.543977737426758,30.157533645629883,0.0
1858,-3.925537109375,-2.8310546875,-4.918212890625,7.603053569793701,-7.450381755828857,4.366412162780762,-24.22258758544922,34.67336654663086,0.0,79.46945190429688,-82.81572723388672,48.37221145629883,-19.530662536621094,30.144014358520508,0.0
1863,-3.928466796875,-2.836669921875,-4.923583984375,7.4809160232543945,-7.496183395385742,4.885496139526367,-24.244556427001953,34.65816879272461,0.0,79.5068588256836,-82.85321044921875,48.39664077758789,-19.525732040405273,30.137643814086914,0.0
1868,-3.9306640625,-2.833251953125,-4.916748046875,7.633587837219238,-7.3740458488464355,4.641221523284912,-24.232219696044922,34.70918273925781,0.0,79.54502868652344,-82.89008331298828,48.41984558105469,-19.519981384277344,30.132259368896484,0.0
1873,-3.926513671875,-2.833251953125,-4.9150390625,7.190839767456055,-7.114503860473633,4.809160232543945,-24.2455997467041,34.68785095214844,0.0,79.58098602294922,-82.9256591796875,48.44388961791992,-19.516550064086914,30.12804412841797,0.0
1878,-3.9296875,-2.83154296875,-4.91357421875,7.343511581420898,-7.114503860473633,4.641221523284912,-24.22980499267578,34.71955108642578,0.0,79.61770629882812,-82.96123504638672,48.46709442138672,-19.51226234436035,30.12406349182129,0.0
1883,-3.928466796875,-2.839111328125,-4.921875,7.465648651123047,-7.190839767456055,4.793893337249756,-24.267568588256836,34.659400939941406,0.0,79.65503692626953,-82.9971923828125,48.49106216430664,-19.50764274597168,30.119308471679688,0.0
1888,-3.927490234375,-2.8388671875,-4.914794921875,7.312977313995361,-6.610687255859375,4.56488561630249,-24.28667449951172,34.682254791259766,0.0,79.69160461425781,-83.03024291992188,48.513885498046875,-19.503931045532227,30.117610931396484,0.0
1893,-3.928955078125,-2.8359375,-4.912353515625,7.664122104644775,-7.190839767456055,5.053435325622559,-24.267887115478516,34.709171295166016,0.0,79.72992706298828,-83.06620025634766,48.539154052734375,-19.498363494873047,30.113218307495117,0.0
1898,-3.927490234375,-2.833984375,-4.9140625,7.404580116271973,-7.297709941864014,4.58015251159668,-24.25166893005371,34.6967887878418,0.0,79.76695251464844,-83.10269165039062,48.56205368041992,-19.493999481201172,30.108226776123047,0.0
1903,-3.927734375,-2.831787109375,-4.91650390625,7.297709941864014,-7.190839767456055,4.442748069763184,-24.228010177612305,34.693641662597656,0.0,79.8034439086914,-83.1386489868164,48.584266662597656,-19.490022659301758,30.103769302368164,0.0
1908,-3.932861328125,-2.830810546875,-4.915771484375,7.450381755828857,-7.007633686065674,4.58015251159668,-24.21166229248047,34.73393249511719,0.0,79.8406982421875,-83.17369079589844,48.6071662902832,-19.485193252563477,30.10051727294922,0.0
1913,-3.929443359375,-2.8310546875,-4.912353515625,7.43511438369751,-7.4809160232543945,4.595419883728027,-24.229875564575195,34.72404098510742,0.0,79.87787628173828,-83.21109771728516,48.63014221191406,-19.480587005615234,30.094858169555664,0.0
1918,-3.92724609375,-2.831787109375,-4.923583984375,7.43511438369751,-7.2366414070129395,4.534351348876953,-24.210208892822266,34.66133117675781,0.0,79.91505432128906,-83.24728393554688,48.65281295776367,-19.475866317749023,30.09001350402832,0.0
1923,-3.931640625,-2.832763671875,-4.914794921875,7.312977313995361,-7.358778476715088,4.29007625579834,-24.23164176940918,34.72499465942383,0.0,79.95162200927734,-83.2840805053711,48.67426300048828,-19.471920013427734,30.085018157958984,0.0
1928,-3.9296875,-2.831298828125,-4.910400390625,7.404580116271973,-7.267175674438477,4.809160232543945,-24.236406326293945,34.73313903808594,0.0,79.9886474609375,-83.32041931152344,48.698307037353516,-19.467567443847656,30.08055877685547,0.0
1934,-3.927734375,-2.83447265625,-4.91796875,7.328244209289551,-6.793893337249756,4.687022686004639,-24.24444007873535,34.681312561035156,0.0,80.0252914428711,-83.35438537597656,48.72174072265625,-19.463668823242188,30.078115463256836,0.0
1939,-3.9296875,-2.833251953125,-4.91455078125,7.4809160232543945,-6.85496187210083,5.068702220916748,-24.240144729614258,34.711517333984375,0.0,80.07017517089844,-83.39551544189453,48.75215148925781,-19.451662063598633,30.068862915039062,0.0
1944,-3.92919921875,-2.83349609375,-4.919677734375,7.633587837219238,-7.312977313995361,4.549618244171143,-24.229385375976562,34.68661880493164,0.0,80.10834503173828,-83.43208312988281,48.774898529052734,-19.44632339477539,30.06402587890625,0.0
1949,-3.92919921875,-2.832275390625,-4.9140625,7.572519302368164,-7.328244209289551,4.5190839767456055,-24.235090255737305,34.71249008178711,0.0,80.14620971679688,-83.4687271118164,48.79749298095703,-19.44135284423828,30.059310913085938,0.0
1954,-3.925537109375,-2.83349609375,-4.913330078125,7.297709941864014,-7.541984558105469,4.916030406951904,-24.25408363342285,34.687599182128906,0.0,80.18270111083984,-83.50643920898438,48.82207489013672,-19.437898635864258,30.053386688232422,0.0
1959,-3.92724609375,-2.8310546875,-4.9208984375,7.5877861976623535,-6.916030406951904,4.656488418579102,-24.211809158325195,34.67404556274414,0.0,80.22064208984375,-83.541015625,48.84535598754883,-19.432729721069336,30.05051040649414,0.0
1964,-3.921630859375,-2.8349609375,-4.913330078125,7.251908302307129,-7.2366414070129395,4.427480697631836,-24.27349853515625,34.65745544433594,0.0,80.25690460205078,-83.57720184326172,48.86749267578125,-19.42967414855957,30.04593849182129,0.0
1969,-3.929931640625,-2.83447265625,-4.9169921875,7.648854732513428,-7.43511438369751,4.671755790710449,-24.24236488342285,34.70030212402344,0.0,80.29515075683594,-83.6143798828125,48.89085006713867,-19.4244441986084,30.040691375732422,0.0
1974,-3.930419921875,-2.8310546875,-4.912353515625,7.251908302307129,-7.328244209289551,4.931297779083252,-24.22779655456543,34.730709075927734,0.0,80.33141326904297,-83.6510238647461,48.91550827026367,-19.421112060546875,30.03620719909668,0.0
1979,-3.927978515625,-2.830322265625,-4.919189453125,7.648854732513428,-7.358778476715088,5.053435325622559,-24.20925521850586,34.68776321411133,0.0,80.36965942382812,-83.68782043457031,48.94077682495117,-19.415695190429688,30.031299591064453,0.0
1984,-3.927490234375,-2.8349609375,-4.91455078125,7.526717662811279,-7.2366414070129395,4.717557430267334,-24.257761001586914,34.692481994628906,0.0,80.40729522705078,-83.72400665283203,48.96436309814453,-19.411239624023438,30.027055740356445,0.0
1989,-3.929931640625,-2.83349609375,-4.916259765625,7.679389476776123,-6.992366313934326,5.053435325622559,-24.23692512512207,34.70560836791992,0.0,80.44569396972656,-83.75897216796875,48.98963165283203,-19.40590476989746,30.024133682250977,0.0
1994,-3.928955078125,-2.83203125,-4.919677734375,7.511450290679932,-7.343511581420898,4.503816604614258,-24.21881866455078,34.68840408325195,0.0,80.4832534790039,-83.79569244384766,49.012149810791016,-19.401308059692383,30.019359588623047,0.0
1999,-3.9267578125,-2.83203125,-4.91796875,7.312977313995361,-7.206106662750244,4.58015251159668,-24.228036880493164,34.68040084838867,0.0,80.51982116699219,-83.83172607421875,49.03504943847656,-19.39777946472168,30.01523780822754,0.0
2004,-3.927734375,-2.83154296875,-4.916259765625,7.282442569732666,-7.022900581359863,4.946564674377441,-24.2268123626709,34.69521713256836,0.0,80.55623626708984,-83.8668441772461,49.059783935546875,-19.394411087036133,30.012144088745117,0.0
2009,-3.927978515625,-2.8330078125,-4.91259765625,7.41984748840332,-7.160305500030518,4.885496139526367,-24.24713706970215,34.70842742919922,0.0,80.59333801269531,-83.90264892578125,49.08421325683594,-19.39051055908203,30.00847053527832,0.0
2014,-3.9306640625,-2.8310546875,-4.912353515625,7.526717662811279,-7.14503812789917,4.641221523284912,-24.227277755737305,34.73237609863281,0.0,80.63097381591797,-83.9383773803711,49.107418060302734,-19.385961532592773,30.005050659179688,0.0
2020,-3.926513671875,-2.83251953125,-4.920654296875,7.450381755828857,-7.41984748840332,4.7633585929870605,-24.225101470947266,34.666595458984375,0.0,80.67567443847656,-83.98289489746094,49.1359977722168,-19.374492645263672,29.992555618286133,0.0
2025,-3.927490234375,-2.832763671875,-4.912841796875,7.648854732513428,-7.297709941864014,4.381679534912109,-24.245677947998047,34.70466995239258,0.0,80.71392059326172,-84.0193862915039,49.15790557861328,-19.369646072387695,29.98836898803711,0.0
2030,-3.927734375,-2.833984375,-4.919189453125,7.603053569793701,-7.160305500030518,4.793893337249756,-24.23749351501465,34.677467346191406,0.0,80.75193786621094,-84.05519104003906,49.1818733215332,-19.364992141723633,29.984699249267578,0.0
2035,-3.9267578125,-2.831787109375,-4.92138671875,7.43511438369751,-6.931297779083252,4.534351348876953,-24.217090606689453,34.666988372802734,0.0,80.78911590576172,-84.08984375,49.20454406738281,-19.361055374145508,29.98211097717285,0.0
2040,-3.93017578125,-2.837158203125,-4.9208984375,7.755725383758545,-7.251908302307129,4.885496139526367,-24.251766204833984,34.67965316772461,0.0,80.82789611816406,-84.12610626220703,49.228973388671875,-19.35577964782715,29.978025436401367,0.0
2045,-3.928955078125,-2.836669921875,-4.914794921875,7.786259651184082,-7.251908302307129,4.824427604675293,-24.26692771911621,34.697444915771484,0.0,80.86682891845703,-84.16236877441406,49.25309371948242,-19.350481033325195,29.974077224731445,0.0
2050,-3.927490234375,-2.834716796875,-4.912109375,7.43511438369751,-6.916030406951904,4.687022686004639,-24.262418746948242,34.70305633544922,0.0,80.90400695800781,-84.19694519042969,49.276527404785156,-19.346920013427734,29.971853256225586,0.0
2055,-3.93017578125,-2.831298828125,-4.91748046875,7.557251930236816,-7.312977313995361,4.793893337249756,-24.21652603149414,34.70745849609375,0.0,80.9417953491211,-84.23351287841797,49.30049514770508,-19.342456817626953,29.96769142150879,0.0
2060,-3.9296875,-2.834716796875,-4.923583984375,7.2366414070129395,-7.2366414070129395,4.56488561630249,-24.227190017700195,34.67109680175781,0.0,80.97798156738281,-84.26969909667969,49.32331848144531,-19.339679718017578,29.963682174682617,0.0
2065,-3.92626953125,-2.834716796875,-4.908935546875,7.43511438369751,-7.007633686065674,4.6259541511535645,-24.273487091064453,34.70772171020508,0.0,81.0151596069336,-84.30474090576172,49.3464469909668,-19.336238861083984,29.961076736450195,0.0
2070,-3.92822265625,-2.833740234375,-4.91796875,7.221374034881592,-7.297709941864014,4.351145267486572,-24.237857818603516,34.686370849609375,0.0,81.05126953125,-84.34123229980469,49.368202209472656,-19.333633422851562,29.956893920898438,0.0
2075,-3.92919921875,-2.83349609375,-4.9189453125,7.526717662811279,-7.465648651123047,4.366412162780762,-24.231334686279297,34.68961715698242,0.0,81.08890533447266,-84.3785629272461,49.39003372192383,-19.3294734954834,29.951919555664062,0.0
2080,-3.9306640625,-2.8349609375,-4.922119140625,7.389312744140625,-7.114503860473633,4.595419883728027,-24.230859756469727,34.683170318603516,0.0,81.1258544921875,-84.41413879394531,49.41300964355469,-19.326011657714844,29.94866943359375,0.0
2085,-3.92431640625,-2.835693359375,-4.916259765625,7.190839767456055,-7.297709941864014,4.870229244232178,-24.265506744384766,34.662086486816406,0.0,81.16181182861328,-84.45063018798828,49.43736267089844,-19.32378578186035,29.944379806518555,0.0
2090,-3.926025390625,-2.833984375,-4.919189453125,7.41984748840332,-7.221374034881592,4.870229244232178,-24.241127014160156,34.665802001953125,0.0,81.19891357421875,-84.48674011230469,49.46171569824219,-19.320262908935547,29.940515518188477,0.0
2095,-3.93017578125,-2.8349609375,-4.91552734375,7.618320465087891,-7.022900581359863,4.885496139526367,-24.249441146850586,34.70681381225586,0.0,81.23700714111328,-84.52185821533203,49.48614501953125,-19.315826416015625,29.93793296813965,0.0
2101,-3.929931640625,-2.8349609375,-4.908203125,7.541984558105469,-7.053435325622559,4.778625965118408,-24.269474029541016,34.73515319824219,0.0,81.28225708007812,-84.56417846679688,49.51481628417969,-19.30453109741211,29.92848777770996,0.0
2106,-3.926513671875,-2.830810546875,-4.911865234375,7.43511438369751,-6.992366313934326,4.6259541511535645,-24.235565185546875,34.70661544799805,0.0,81.3194351196289,-84.5991439819336,49.53794479370117,-19.30109405517578,29.926212310791016,0.0
2111,-3.93017578125,-2.832763671875,-4.919189453125,7.603053569793701,-7.175572395324707,4.85496187210083,-24.223066329956055,34.69700622558594,0.0,81.35745239257812,-84.63502502441406,49.562217712402344,-19.296751022338867,29.9229679107666,0.0
2116,-3.92919921875,-2.830322265625,-4.916015625,6.977099418640137,-6.809160232543945,5.114503860473633,-24.215103149414062,34.70909881591797,0.0,81.39234161376953,-84.6690673828125,49.587791442871094,-19.295482635498047,29.9216365814209,0.0
2121,-3.9267578125,-2.835693359375,-4.9189453125,7.5877861976623535,-7.129770755767822,4.366412162780762,-24.25315284729004,34.66777420043945,0.0,81.43028259277344,-84.70471954345703,49.609622955322266,-19.291439056396484,29.918434143066406,0.0
2126,-3.929443359375,-2.83251953125,-4.91455078125,7.41984748840332,-7.267175674438477,4.610687255859375,-24.235118865966797,34.711578369140625,0.0,81.4673843383789,-84.74105834960938,49.63267517089844,-19.28812599182129,29.914857864379883,0.0
2131,-3.93115234375,-2.8359375,-4.909423828125,7.557251930236816,-7.465648651123047,4.259541988372803,-24.271011352539062,34.736167907714844,0.0,81.50517272949219,-84.77838897705078,49.65397262573242,-19.284387588500977,29.910476684570312,0.0
2136,-3.92724609375,-2.83447265625,-4.9169921875,7.41984748840332,-7.312977313995361,4.58015251159668,-24.248079299926758,34.681976318359375,0.0,81.54227447509766,-84.81495666503906,49.67687225341797,-19.281190872192383,29.90650749206543,0.0
2141,-3.927490234375,-2.83740234375,-4.907470703125,6.992366313934326,-7.43511438369751,4.6259541511535645,-24.295129776000977,34.715702056884766,0.0,81.57723999023438,-84.85213470458984,49.70000076293945,-19.28044891357422,29.902179718017578,0.0
2146,-3.9248046875,-2.829833984375,-4.915283203125,7.343511581420898,-7.007633686065674,4.503816604614258,-24.222700119018555,34.68324279785156,0.0,81.61396026611328,-84.88717651367188,49.72251892089844,-19.277467727661133,29.8997745513916,0.0
2151,-3.929931640625,-2.832275390625,-4.912841796875,7.3740458488464355,-7.038167953491211,4.7633585929870605,-24.236780166625977,34.72248840332031,0.0,81.65083312988281,-84.92237091064453,49.746334075927734,-19.274442672729492,29.897493362426758,0.0
2156,-3.928466796875,-2.833740234375,-4.9130859375,7.4809160232543945,-6.946564674377441,4.5190839767456055,-24.250341415405273,34.708030700683594,0.0,81.68824005126953,-84.95710754394531,49.76892852783203,-19.2709903717041,29.89557456970215,0.0
2161,-3.927001953125,-2.83447265625,-4.917236328125,7.511450290679932,-6.870229244232178,4.381679534912109,-24.247949600219727,34.6793098449707,0.0,81.72579956054688,-84.991455078125,49.790836334228516,-19.267385482788086,29.893844604492188,0.0
2166,-3.92578125,-2.83544921875,-4.915771484375,7.603053569793701,-6.992366313934326,4.885496139526367,-24.261842727661133,34.67466354370117,0.0,81.7638168334961,-85.02642059326172,49.81526565551758,-19.26343536376953,29.891481399536133,0.0
2171,-3.927001953125,-2.833984375,-4.919921875,7.450381755828857,-7.2366414070129395,4.824427604675293,-24.23710060119629,34.669471740722656,0.0,81.80107116699219,-85.06260681152344,49.839385986328125,-19.260093688964844,29.88787841796875,0.0
2176,-3.93359375,-2.83349609375,-4.916748046875,7.312977313995361,-7.389312744140625,4.427480697631836,-24.227834701538086,34.72858810424805,0.0,81.83763885498047,-85.09955596923828,49.86152267456055,-19.25738525390625,29.88393211364746,0.0
2182,-3.926025390625,-2.826171875,-4.91162109375,7.2366414070129395,-7.267175674438477,5.053435325622559,-24.20210075378418,34.715232849121094,0.0,81.88105773925781,-85.14315795898438,49.891841888427734,-19.247800827026367,29.873395919799805,0.0
2187,-3.927978515625,-2.8359375,-4.919677734375,7.72519063949585,-7.14503812789917,4.839694499969482,-24.25045394897461,34.67253494262695,0.0,81.91968536376953,-85.17888641357422,49.916038513183594,-19.243362426757812,29.870458602905273,0.0
2192,-3.924072265625,-2.83544921875,-4.908447265625,7.603053569793701,-7.3740458488464355,5.14503812789917,-24.28502655029297,34.69297790527344,0.0,81.95770263671875,-85.21575927734375,49.94176483154297,-19.23978614807129,29.866533279418945,0.0
2197,-3.929443359375,-2.833984375,-4.917724609375,7.175572395324707,-7.572519302368164,4.381679534912109,-24.237760543823242,34.695125579833984,0.0,81.99358367919922,-85.25362396240234,49.96367263793945,-19.238027572631836,29.86165428161621,0.0
2202,-3.929931640625,-2.835205078125,-4.92431640625,7.099236488342285,-7.160305500030518,4.702290058135986,-24.228416442871094,34.668617248535156,0.0,82.02908325195312,-85.2894287109375,49.9871826171875,-19.236587524414062,29.85866928100586,0.0
2207,-3.9287109375,-2.83349609375,-4.912841796875,7.465648651123047,-7.14503812789917,4.687022686004639,-24.248624801635742,34.711273193359375,0.0,82.06641387939453,-85.32515716552734,50.010616302490234,-19.23346519470215,29.856060028076172,0.0
2212,-3.93212890625,-2.8330078125,-4.91552734375,7.511450290679932,-7.14503812789917,4.885496139526367,-24.23050308227539,34.72475051879883,0.0,82.10397338867188,-85.36088562011719,50.0350456237793,-19.230005264282227,29.853551864624023,0.0
2217,-3.92626953125,-2.833251953125,-4.919921875,7.404580116271973,-7.267175674438477,4.671755790710449,-24.23311424255371,34.66619873046875,0.0,82.14099884033203,-85.39722442626953,50.05840301513672,-19.227108001708984,29.85004997253418,0.0
2222,-3.929931640625,-2.833984375,-4.91796875,7.206106662750244,-7.038167953491211,4.809160232543945,-24.23607063293457,34.69746017456055,0.0,82.17703247070312,-85.43241882324219,50.08244705200195,-19.225229263305664,29.847911834716797,0.0
2227,-3.927978515625,-2.834228515625,-4.9189453125,7.679389476776123,-7.190839767456055,4.839694499969482,-24.239473342895508,34.67955780029297,0.0,82.2154312133789,-85.46837615966797,50.10664367675781,-19.221027374267578,29.844900131225586,0.0
2232,-3.924560546875,-2.83349609375,-4.915771484375,7.72519063949585,-6.839694499969482,4.641221523284912,-24.24965476989746,34.670936584472656,0.0,82.25405883789062,-85.50257110595703,50.12984848022461,-19.216686248779297,29.843585968017578,0.0
2237,-3.928466796875,-2.837646484375,-4.9248046875,7.618320465087891,-7.175572395324707,4.458015441894531,-24.248689651489258,34.650882720947266,0.0,82.29215240478516,-85.5384521484375,50.152137756347656,-19.212890625,29.840469360351562,0.0
2242,-3.93017578125,-2.83349609375,-4.9169921875,7.526717662811279,-6.931297779083252,4.717557430267334,-24.234455108642578,34.70427322387695,0.0,82.32978820800781,-85.57310485839844,50.175724029541016,-19.209470748901367,29.838939666748047,0.0
2247,-3.9287109375,-2.829345703125,-4.916748046875,7.328244209289551,-7.3740458488464355,4.687022686004639,-24.206798553466797,34.7050666809082,0.0,82.3664321899414,-85.60997772216797,50.19915771484375,-19.206863403320312,29.83521842956543,0.0
2252,-3.93017578125,-2.835693359375,-4.916259765625,7.358778476715088,-7.4809160232543945,4.656488418579102,-24.253034591674805,34.70208740234375,0.0,82.40322875976562,-85.64738464355469,50.22243881225586,-19.20442771911621,29.830965042114258,0.0
2257,-3.92529296875,-2.8369140625,-4.91259765625,7.877862453460693,-7.43511438369751,5.007633686065674,-24.282438278198242,34.68085479736328,0.0,82.44261932373047,-85.68456268310547,50.24747848510742,-19.199623107910156,29.82681655883789,0.0
2263,-3.928955078125,-2.830810546875,-4.91015625,7.557251930236816,-7.14503812789917,4.809160232543945,-24.23491668701172,34.73029708862305,0.0,82.48796081542969,-85.72743225097656,50.27633285522461,-19.188705444335938,29.817462921142578,0.0
2268,-3.927490234375,-2.83251953125,-4.90966796875,7.3740458488464355,-7.129770755767822,4.717557430267334,-24.252286911010742,34.71825408935547,0.0,82.52483367919922,-85.7630844116211,50.29991912841797,-19.186386108398438,29.81525421142578,0.0
2273,-3.926025390625,-2.837890625,-4.917236328125,7.465648651123047,-7.190839767456055,4.931297779083252,-24.275896072387695,34.66457748413086,0.0,82.56216430664062,-85.79904174804688,50.32457733154297,-19.183778762817383,29.81238555908203,0.0
2278,-3.927001953125,-2.831787109375,-4.9150390625,7.3740458488464355,-6.931297779083252,4.961832046508789,-24.233469009399414,34.69464111328125,0.0,82.59903717041016,-85.83369445800781,50.349388122558594,-19.181346893310547,29.811019897460938,0.0
2283,-3.926025390625,-2.83203125,-4.916015625,7.603053569793701,-7.053435325622559,4.85496187210083,-24.23479461669922,34.68339538574219,0.0,82.63705444335938,-85.86896514892578,50.373661041259766,-19.17779541015625,29.80897331237793,0.0
2288,-3.928466796875,-2.835205078125,-4.909912109375,7.312977313995361,-7.114503860473633,4.748091697692871,-24.269893646240234,34.71757125854492,0.0,82.67362213134766,-85.904541015625,50.39739990234375,-19.175935745239258,29.806859970092773,0.0
2293,-3.928955078125,-2.835693359375,-4.919921875,7.450381755828857,-7.007633686065674,4.809160232543945,-24.245880126953125,34.678775787353516,0.0,82.71087646484375,-85.93958282470703,50.421443939208984,-19.173236846923828,29.805021286010742,0.0
2298,-3.92626953125,-2.832763671875,-4.9169921875,7.358778476715088,-7.099236488342285,4.916030406951904,-24.237220764160156,34.67934036254883,0.0,82.74767303466797,-85.97508239746094,50.44602584838867,-19.170944213867188,29.802736282348633,0.0
2303,-3.928955078125,-2.837646484375,-4.916748046875,7.465648651123047,-7.633587837219238,4.366412162780762,-24.26911163330078,34.68714904785156,0.0,82.78500366210938,-86.01325225830078,50.467857360839844,-19.168344497680664,29.7978572845459,0.0
2308,-3.9287109375,-2.8359375,-4.916259765625,7.160305500030518,-7.41984748840332,4.366412162780762,-24.257999420166016,34.69151306152344,0.0,82.82080841064453,-86.05035400390625,50.489688873291016,-19.16719627380371,29.79409408569336,0.0
2313,-3.9306640625,-2.83544921875,-4.915283203125,7.572519302368164,-7.053435325622559,4.702290058135986,-24.25274658203125,34.709991455078125,0.0,82.85867309570312,-86.08562469482422,50.51319885253906,-19.163963317871094,29.792293548583984,0.0
2318,-3.931640625,-2.834716796875,-4.912109375,7.557251930236816,-7.832061290740967,4.687022686004639,-24.25357437133789,34.73138427734375,0.0,82.8964614868164,-86.12478637695312,50.5366325378418,-19.160825729370117,29.786775588989258,0.0
2323,-3.925537109375,-2.831298828125,-4.91845703125,6.931297779083252,-7.190839767456055,4.748091697692871,-24.223785400390625,34.67179489135742,0.0,82.93111419677734,-86.1607437133789,50.56037139892578,-19.16061019897461,29.784069061279297,0.0
2328,-3.925537109375,-2.8349609375,-4.919677734375,7.557251930236816,-7.160305500030518,4.793893337249756,-24.248254776000977,34.65816879272461,0.0,82.96890258789062,-86.19654846191406,50.5843391418457,-19.15744400024414,29.78143310546875,0.0
2333,-3.927001953125,-2.830322265625,-4.91015625,7.3740458488464355,-7.114503860473633,4.5190839767456055,-24.235380172729492,34.71811294555664,0.0,83.00577545166016,-86.23212432861328,50.60693359375,-19.155115127563477,29.77943992614746,0.0
2338,-3.92822265625,-2.836181640625,-4.922119140625,7.358778476715088,-7.312977313995361,4.931297779083252,-24.24527931213379,34.66364288330078,0.0,83.04257202148438,-86.26869201660156,50.631591796875,-19.152936935424805,29.776098251342773,0.0
2344,-3.93017578125,-2.830810546875,-4.916015625,7.404580116271973,-6.778625965118408,4.56488561630249,-24.216724395751953,34.7146110534668,0.0,83.07959747314453,-86.30258178710938,50.654415130615234,-19.150346755981445,29.77577018737793,0.0
2349,-3.926513671875,-2.833984375,-4.916748046875,7.603053569793701,-7.175572395324707,5.022900581359863,-24.246591567993164,34.67912673950195,0.0,83.12521362304688,-86.34563446044922,50.68455123901367,-19.139530181884766,29.76619529724121,0.0
2354,-3.927001953125,-2.833251953125,-4.920654296875,7.14503812789917,-7.572519302368164,4.595419883728027,-24.2296085357666,34.6682014465332,0.0,83.16094207763672,-86.38349914550781,50.70752716064453,-19.138490676879883,29.76175880432129,0.0
2359,-3.927734375,-2.83349609375,-4.921142578125,7.251908302307129,-7.557251930236816,4.473282337188721,-24.228599548339844,34.67062759399414,0.0,83.19720458984375,-86.4212875366211,50.72989273071289,-19.136911392211914,29.757436752319336,0.0
2364,-3.926513671875,-2.83154296875,-4.915283203125,7.41984748840332,-7.022900581359863,4.793893337249756,-24.232009887695312,34.69088363647461,0.0,83.23430633544922,-86.45640563964844,50.75386047363281,-19.134523391723633,29.75592613220215,0.0
2369,-3.9287109375,-2.8330078125,-4.91650390625,7.740458011627197,-7.297709941864014,4.488549709320068,-24.23517608642578,34.69742965698242,0.0,83.27301025390625,-86.4928970336914,50.776302337646484,-19.130573272705078,29.753097534179688,0.0
2374,-3.927978515625,-2.8359375,-4.9169921875,7.740458011627197,-7.312977313995361,4.595419883728027,-24.257606506347656,34.68351745605469,0.0,83.31171417236328,-86.52946472167969,50.799278259277344,-19.126792907714844,29.75010871887207,0.0
2379,-3.9306640625,-2.830322265625,-4.912841796875,7.526717662811279,-7.358778476715088,5.114503860473633,-24.220430374145508,34.73210144042969,0.0,83.34934997558594,-86.5662612915039,50.824851989746094,-19.12384033203125,29.747234344482422,0.0
2384,-3.92822265625,-2.83349609375,-4.9248046875,7.740458011627197,-7.206106662750244,4.809160232543945,-24.217819213867188,34.65898513793945,0.0,83.38805389404297,-86.602294921875,50.84889602661133,-19.11981964111328,29.74463653564453,0.0
2389,-3.9296875,-2.835205078125,-4.915283203125,7.465648651123047,-6.702290058135986,4.809160232543945,-24.252979278564453,34.70390319824219,0.0,83.42538452148438,-86.63580322265625,50.87294006347656,-19.117420196533203,29.744853973388672,0.0
2394,-3.930419921875,-2.83251953125,-4.921142578125,7.465648651123047,-7.099236488342285,4.671755790710449,-24.215505599975586,34.691253662109375,0.0,83.46271514892578,-86.67130279541016,50.896297454833984,-19.114776611328125,29.743005752563477,0.0
2399,-3.9296875,-2.833740234375,-4.915771484375,7.251908302307129,-6.992366313934326,4.946564674377441,-24.240591049194336,34.70536422729492,0.0,83.49897766113281,-86.70626831054688,50.9210319519043,-19.11337661743164,29.741788864135742,0.0
2404,-3.930419921875,-2.832763671875,-4.917724609375,7.41984748840332,-7.312977313995361,4.549618244171143,-24.226444244384766,34.70466995239258,0.0,83.53607940673828,-86.74283599853516,50.94377899169922,-19.111045837402344,29.738975524902344,0.0
2409,-3.928955078125,-2.832275390625,-4.9208984375,7.251908302307129,-7.022900581359863,4.3053436279296875,-24.217418670654297,34.68283462524414,0.0,83.57234191894531,-86.7779541015625,50.96530532836914,-19.109498977661133,29.737468719482422,0.0
2414,-3.927734375,-2.83349609375,-4.908447265625,7.572519302368164,-7.4809160232543945,4.488549709320068,-24.26241683959961,34.72261428833008,0.0,83.6102066040039,-86.81536102294922,50.98774719238281,-19.106666564941406,29.733957290649414,0.0
2419,-3.9228515625,-2.834228515625,-4.914306640625,7.4809160232543945,-7.465648651123047,4.6259541511535645,-24.262744903564453,34.66352844238281,0.0,83.64761352539062,-86.85269165039062,51.0108757019043,-19.10430145263672,29.730140686035156,0.0
2425,-3.92919921875,-2.8349609375,-4.91552734375,7.404580116271973,-7.099236488342285,4.503816604614258,-24.25152015686035,34.70014953613281,0.0,83.68463897705078,-86.88819122314453,51.03339385986328,-19.102249145507812,29.728410720825195,0.0
2430,-3.93115234375,-2.834716796875,-4.9169921875,7.633587837219238,-7.175572395324707,4.732824325561523,-24.241615295410156,34.70805740356445,0.0,83.73043823242188,-86.93124389648438,51.061790466308594,-19.09151840209961,29.719329833984375,0.0
2435,-3.930908203125,-2.832763671875,-4.912353515625,7.4809160232543945,-7.068702220916748,4.717557430267334,-24.23969841003418,34.730003356933594,0.0,83.7678451538086,-86.96659088134766,51.08537673950195,-19.08917808532715,29.718107223510742,0.0
2440,-3.927490234375,-2.836669921875,-4.91845703125,7.312977313995361,-7.2366414070129395,5.068702220916748,-24.260286331176758,34.67246627807617,0.0,83.80441284179688,-87.00277709960938,51.110721588134766,-19.087818145751953,29.71566390991211,0.0
2445,-3.9326171875,-2.833251953125,-4.917724609375,7.053435325622559,-6.900763511657715,4.961832046508789,-24.225467681884766,34.718505859375,0.0,83.83968353271484,-87.03727722167969,51.13553237915039,-19.087514877319336,29.715206146240234,0.0
2450,-3.929443359375,-2.830810546875,-4.915283203125,7.618320465087891,-7.068702220916748,5.007633686065674,-24.220230102539062,34.71261215209961,0.0,83.87777709960938,-87.07262420654297,51.16057205200195,-19.08436393737793,29.713871002197266,0.0
2455,-3.9306640625,-2.833251953125,-4.915771484375,7.5877861976623535,-7.129770755767822,4.885496139526367,-24.234817504882812,34.71318054199219,0.0,83.91571807861328,-87.1082763671875,51.185001373291016,-19.08147621154785,29.712238311767578,0.0
2460,-3.9228515625,-2.834228515625,-4.92138671875,7.511450290679932,-7.328244209289551,4.931297779083252,-24.243865966796875,34.63456726074219,0.0,83.95327758789062,-87.1449203491211,51.209659576416016,-19.07904052734375,29.709091186523438,0.0
2465,-3.93115234375,-2.83154296875,-4.92333984375,7.603053569793701,-7.160305500030518,4.885496139526367,-24.200721740722656,34.68955612182617,0.0,83.99129486083984,-87.18072509765625,51.23408889770508,-19.075868606567383,29.707164764404297,0.0
2470,-3.93017578125,-2.834716796875,-4.923828125,7.160305500030518,-7.114503860473633,4.748091697692871,-24.22550392150879,34.67342758178711,0.0,84.027099609375,-87.21630096435547,51.25782775878906,-19.075077056884766,29.70536231994629,0.0
2475,-3.928955078125,-2.8349609375,-4.909423828125,7.832061290740967,-7.43511438369751,4.641221523284912,-24.2683048248291,34.72348403930664,0.0,84.0662612915039,-87.25347900390625,51.28103256225586,-19.07123565673828,29.702308654785156,0.0
2480,-3.93017578125,-2.83349609375,-4.909912109375,7.343511581420898,-7.5877861976623535,4.56488561630249,-24.253307342529297,34.733280181884766,0.0,84.10298156738281,-87.29141998291016,51.303855895996094,-19.06973648071289,29.698577880859375,0.0
2485,-3.929931640625,-2.8349609375,-4.916259765625,7.541984558105469,-7.129770755767822,4.427480697631836,-24.248010635375977,34.7021484375,0.0,84.14069366455078,-87.32707214355469,51.325992584228516,-19.067218780517578,29.696929931640625,0.0
