Time,Acc_low_X,Acc_low_Y,Acc_low_Z,Gyro_low_X,Gyro_low_Y,Gyro_low_Z,Acc_X,Acc_Y,Acc_Z,Gyro_X,Gyro_Y,Gyro_Z,Euler_X,Euler_Y,Euler_Z
0,-1.931884765625,-2.84619140625,-4.94384765625,7.328244209289551,-7.648854732513428,5.358778476715088,-28.201005935668945,18.708873748779297,0.0,22.314504623413086,-23.29076385498047,16.317480087280273,-25.31169891357422,16.306644439697266,0.0
5,-1.93115234375,-2.84619140625,-4.940673828125,7.389312744140625,-7.2366414070129395,4.56488561630249,-28.215503692626953,18.710668563842773,0.0,22.351451873779297,-23.326946258544922,16.34030532836914,-26.701873779296875,17.454673767089844,0.0
11,-1.935546875,-2.84521484375,-4.94091796875,7.190839767456055,-6.992366313934326,4.687022686004639,-28.199087142944336,18.751117706298828,0.0,22.387405395507812,-23.361907958984375,16.363740921020508,-27.166885375976562,17.854751586914062,0.0
16,-1.933349609375,-2.84423828125,-4.9384765625,7.572519302368164,-7.43511438369751,4.732824325561523,-28.204723358154297,18.739276885986328,0.0,22.43284034729004,-23.406518936157227,16.39213752746582,-27.388277053833008,18.03900146484375,0.0
21,-1.936279296875,-2.8447265625,-4.945556640625,7.465648651123047,-7.282442569732666,5.083969593048096,-28.17438507080078,18.74616813659668,0.0,22.470169067382812,-23.442930221557617,16.417556762695312,-27.51371192932129,18.149568557739258,0.0
26,-1.932861328125,-2.843994140625,-4.943359375,7.541984558105469,-7.389312744140625,4.793893337249756,-28.183027267456055,18.722312927246094,0.0,22.50787925720215,-23.479877471923828,16.441526412963867,-27.59271240234375,18.21326446533203,0.0
31,-1.9306640625,-2.844970703125,-4.949951171875,7.190839767456055,-7.496183395385742,4.702290058135986,-28.167232513427734,18.68360710144043,0.0,22.543832778930664,-23.517358779907227,16.465038299560547,-27.643272399902344,18.247751235961914,0.0
36,-1.92724609375,-2.837646484375,-4.939453125,7.358778476715088,-7.740458011627197,4.824427604675293,-28.15528678894043,18.691675186157227,0.0,22.58062744140625,-23.556060791015625,16.489160537719727,-27.674617767333984,18.268972396850586,0.0
41,-1.927978515625,-2.844482421875,-4.94482421875,7.190839767456055,-7.664122104644775,4.809160232543945,-28.18897247314453,18.673688888549805,0.0,22.616580963134766,-23.59438133239746,16.513206481933594,-27.699462890625,18.279600143432617,0.0
46,-1.93017578125,-2.84423828125,-4.938232421875,7.511450290679932,-7.389312744140625,4.85496187210083,-28.21095085144043,18.711301803588867,0.0,22.654138565063477,-23.631328582763672,16.5374813079834,-27.716548919677734,18.289295196533203,0.0
51,-1.93310546875,-2.8447265625,-4.9443359375,7.664122104644775,-6.931297779083252,4.793893337249756,-28.18468475341797,18.72081184387207,0.0,22.692459106445312,-23.665985107421875,16.561450958251953,-27.724090576171875,18.296852111816406,0.0
56,-1.931396484375,-2.84326171875,-4.943603515625,7.6946563720703125,-7.312977313995361,4.442748069763184,-28.178258895874023,18.709579467773438,0.0,22.730932235717773,-23.702550888061523,16.583663940429688,-27.72654151916504,18.297609329223633,0.0
61,-1.9306640625,-2.843994140625,-4.941162109375,7.465648651123047,-7.572519302368164,4.381679534912109,-28.195823669433594,18.708324432373047,0.0,22.768260955810547,-23.740413665771484,16.605571746826172,-27.728090286254883,18.294170379638672,0.0
66,-1.932861328125,-2.84228515625,-4.944580078125,7.72519063949585,-7.4809160232543945,4.702290058135986,-28.163585662841797,18.721683502197266,0.0,22.806886672973633,-23.77781867980957,16.62908363342285,-27.7232723236084,18.2899169921875,0.0
71,-1.9345703125,-2.844970703125,-4.943603515625,7.847328186035156,-7.099236488342285,4.534351348876953,-28.18739891052246,18.735576629638672,0.0,22.84612274169922,-23.81331443786621,16.651756286621094,-27.717559814453125,18.286466598510742,0.0
76,-1.93017578125,-2.847900390625,-4.943115234375,7.3740458488464355,-7.496183395385742,4.6259541511535645,-28.2211971282959,18.69281005859375,0.0,22.882993698120117,-23.85079574584961,16.67488670349121,-27.714460372924805,18.276716232299805,0.0
81,-1.927734375,-2.8486328125,-4.94140625,7.175572395324707,-7.404580116271973,4.748091697692871,-28.238500595092773,18.67420196533203,0.0,22.91887092590332,-23.887819290161133,16.698627471923828,-27.711532592773438,18.265262603759766,0.0
86,-1.9296875,-2.85009765625,-4.939208984375,7.389312744140625,-7.893129825592041,4.473282337188721,-28.256799697875977,18.695383071899414,0.0,22.95581817626953,-23.927284240722656,16.720993041992188,-27.70696449279785,18.25191307067871,0.0
91,-1.931640625,-2.8486328125,-4.93994140625,7.404580116271973,-7.404580116271973,4.396946430206299,-28.238245010375977,18.713285446166992,0.0,22.992841720581055,-23.96430778503418,16.742977142333984,-27.699905395507812,18.241167068481445,0.0
97,-1.931884765625,-2.849609375,-4.945068359375,7.328244209289551,-7.3740458488464355,4.7633585929870605,-28.22454071044922,18.7004451751709,0.0,23.03681182861328,-24.00855255126953,16.771556854248047,-27.684446334838867,18.222169876098633,0.0
102,-1.936279296875,-2.847900390625,-4.937744140625,7.496183395385742,-7.664122104644775,4.870229244232178,-28.233699798583984,18.76203155517578,0.0,23.07429313659668,-24.046873092651367,16.795907974243164,-27.675003051757812,18.21147918701172,0.0
107,-1.932373046875,-2.84716796875,-4.93212890625,7.496183395385742,-7.465648651123047,4.595419883728027,-28.257539749145508,18.742816925048828,0.0,23.111774444580078,-24.08420181274414,16.818885803222656,-27.66582489013672,18.200109481811523,0.0
112,-1.93310546875,-2.849853515625,-4.939453125,7.4809160232543945,-7.358778476715088,4.641221523284912,-28.24812126159668,18.72591781616211,0.0,23.149179458618164,-24.120996475219727,16.842092514038086,-27.655498504638672,18.187898635864258,0.0
117,-1.931396484375,-2.841796875,-4.93603515625,7.190839767456055,-6.931297779083252,4.809160232543945,-28.197668075561523,18.73185920715332,0.0,23.18513298034668,-24.15565299987793,16.866138458251953,-27.64377212524414,18.177490234375,0.0
122,-1.92919921875,-2.843017578125,-4.93115234375,7.4809160232543945,-7.175572395324707,4.732824325561523,-28.232013702392578,18.723108291625977,0.0,23.222537994384766,-24.191530227661133,16.889802932739258,-27.63155746459961,18.16502571105957,0.0
127,-1.933349609375,-2.845703125,-4.939697265625,7.083969593048096,-7.465648651123047,5.160305500030518,-28.211898803710938,18.733806610107422,0.0,23.257957458496094,-24.228858947753906,16.915603637695312,-27.619997024536133,18.151182174682617,0.0
132,-1.932861328125,-2.843994140625,-4.9375,7.557251930236816,-7.70992374420166,4.213740348815918,-28.20756721496582,18.737834930419922,0.0,23.295743942260742,-24.26740837097168,16.93667221069336,-27.605562210083008,18.13597869873047,0.0
137,-1.9306640625,-2.848876953125,-4.94091796875,7.358778476715088,-7.770992279052734,4.58015251159668,-28.237796783447266,18.70153045654297,0.0,23.332538604736328,-24.306262969970703,16.95957374572754,-27.592878341674805,18.118906021118164,0.0
142,-1.934814453125,-2.83935546875,-4.93798828125,7.312977313995361,-7.633587837219238,4.870229244232178,-28.16338348388672,18.761234283447266,0.0,23.369104385375977,-24.344430923461914,16.983924865722656,-27.577455520629883,18.10443687438965,0.0
147,-1.93115234375,-2.841796875,-4.93701171875,7.465648651123047,-7.8015265464782715,4.732824325561523,-28.1939754486084,18.727067947387695,0.0,23.40643310546875,-24.383438110351562,17.00758934020996,-27.562158584594727,18.087724685668945,0.0
152,-1.93115234375,-2.8427734375,-4.93994140625,7.343511581420898,-7.511450290679932,4.946564674377441,-28.189897537231445,18.717817306518555,0.0,23.443151473999023,-24.420995712280273,17.03232192993164,-27.54712677001953,18.071958541870117,0.0
157,-1.938232421875,-2.845703125,-4.94189453125,7.496183395385742,-7.343511581420898,4.366412162780762,-28.194686889648438,18.771976470947266,0.0,23.480632781982422,-24.457714080810547,17.054153442382812,-27.531326293945312,18.058557510375977,0.0
162,-1.92919921875,-2.840087890625,-4.945068359375,7.465648651123047,-7.2366414070129395,4.366412162780762,-28.149091720581055,18.690723419189453,0.0,23.517961502075195,-24.493896484375,17.075984954833984,-27.514122009277344,18.04290771484375,0.0
167,-1.9326171875,-2.8427734375,-4.94580078125,7.9083967208862305,-6.85496187210083,4.534351348876953,-28.162975311279297,18.71550941467285,0.0,23.55750274658203,-24.52817153930664,17.098657608032227,-27.495126724243164,18.02972984313965,0.0
172,-1.936767578125,-2.847900390625,-4.935791015625,7.450381755828857,-7.083969593048096,4.870229244232178,-28.241085052490234,18.7716121673584,0.0,23.594755172729492,-24.56359100341797,17.123008728027344,-27.480606079101562,18.016870498657227,0.0
178,-1.9296875,-2.84375,-4.940673828125,7.603053569793701,-7.129770755767822,4.458015441894531,-28.197420120239258,18.701181411743164,0.0,23.64037322998047,-24.606369018554688,17.149757385253906,-27.456539154052734,17.994644165039062,0.0
183,-1.9306640625,-2.842529296875,-4.943115234375,7.526717662811279,-7.114503860473633,4.4122138023376465,-28.175355911254883,18.705385208129883,0.0,23.678007125854492,-24.64194107055664,17.171817779541016,-27.439729690551758,17.979618072509766,0.0
188,-1.93115234375,-2.84326171875,-4.940673828125,7.190839767456055,-7.129770755767822,4.900763511657715,-28.19092559814453,18.715133666992188,0.0,23.713960647583008,-24.677589416503906,17.196321487426758,-27.42490005493164,17.964664459228516,0.0
193,-1.9326171875,-2.848876953125,-4.9404296875,7.358778476715088,-7.877862453460693,4.85496187210083,-28.236642837524414,18.72042465209961,0.0,23.750755310058594,-24.716978073120117,17.220596313476562,-27.410316467285156,17.946088790893555,0.0
198,-1.936279296875,-2.850341796875,-4.941650390625,7.465648651123047,-7.6946563720703125,4.656488418579102,-28.237791061401367,18.747947692871094,0.0,23.788084030151367,-24.755451202392578,17.243879318237305,-27.395084381103516,17.929086685180664,0.0
203,-1.935302734375,-2.844482421875,-4.9404296875,7.8015265464782715,-7.72519063949585,4.351145267486572,-28.195388793945312,18.751331329345703,0.0,23.827091217041016,-24.794076919555664,17.265634536743164,-27.377023696899414,17.911945343017578,0.0
208,-1.930419921875,-2.841064453125,-4.93896484375,7.404580116271973,-7.557251930236816,4.56488561630249,-28.180843353271484,18.716402053833008,0.0,23.86411476135254,-24.831863403320312,17.28845977783203,-27.36050796508789,17.89470100402832,0.0
213,-1.931640625,-2.84228515625,-4.9345703125,7.297709941864014,-7.526717662811279,4.366412162780762,-28.207509994506836,18.737199783325195,0.0,23.900604248046875,-24.869497299194336,17.310291290283203,-27.345090866088867,17.87805938720703,0.0
218,-1.934814453125,-2.84423828125,-4.93701171875,7.511450290679932,-7.5877861976623535,4.839694499969482,-28.208457946777344,18.756366729736328,0.0,23.938161849975586,-24.90743637084961,17.334489822387695,-27.32855987548828,17.86150360107422,0.0
223,-1.927978515625,-2.8447265625,-4.9365234375,7.4809160232543945,-7.282442569732666,4.396946430206299,-28.225818634033203,18.69525718688965,0.0,23.975566864013672,-24.94384765625,17.356473922729492,-27.312511444091797,17.844974517822266,0.0
228,-1.928955078125,-2.8466796875,-4.935302734375,7.206106662750244,-6.977099418640137,4.58015251159668,-28.245731353759766,18.70431900024414,0.0,24.0115966796875,-24.97873306274414,17.379375457763672,-27.298173904418945,17.830102920532227,0.0
233,-1.928466796875,-2.849365234375,-4.942626953125,7.633587837219238,-7.4809160232543945,4.610687255859375,-28.238319396972656,18.676467895507812,0.0,24.04976463317871,-25.016138076782227,17.402429580688477,-27.281463623046875,17.812082290649414,0.0
238,-1.935791015625,-2.84814453125,-4.937744140625,7.572519302368164,-7.664122104644775,4.900763511657715,-28.236549377441406,18.75725555419922,0.0,24.087627410888672,-25.054458618164062,17.42693328857422,-27.264955520629883,17.794912338256836,0.0
243,-1.930419921875,-2.843994140625,-4.94140625,7.41984748840332,-7.541984558105469,4.641221523284912,-28.195201873779297,18.705476760864258,0.0,24.124727249145508,-25.0921688079834,17.45013999938965,-27.248262405395508,17.777206420898438,0.0
248,-1.931396484375,-2.846923828125,-4.936279296875,7.404580116271973,-7.740458011627197,4.85496187210083,-28.239673614501953,18.723384857177734,0.0,24.16175079345703,-25.130870819091797,17.474414825439453,-27.23253059387207,17.758893966674805,0.0
253,-1.93310546875,-2.845458984375,-4.9404296875,7.43511438369751,-8.061068534851074,4.656488418579102,-28.207181930541992,18.730037689208984,0.0,24.19892692565918,-25.17117691040039,17.497697830200195,-27.215919494628906,17.739145278930664,0.0
259,-1.928955078125,-2.845947265625,-4.938720703125,7.511450290679932,-7.740458011627197,4.351145267486572,-28.225242614746094,18.696395874023438,0.0,24.243995666503906,-25.217618942260742,17.523805618286133,-27.191919326782227,17.712759017944336,0.0
264,-1.93115234375,-2.84228515625,-4.94287109375,7.41984748840332,-7.6946563720703125,4.977099418640137,-28.17353057861328,18.710803985595703,0.0,24.281095504760742,-25.256092071533203,17.548690795898438,-27.174819946289062,17.69463539123535,0.0
269,-1.929443359375,-2.848388671875,-4.94189453125,7.618320465087891,-7.679389476776123,4.641221523284912,-28.231605529785156,18.688690185546875,0.0,24.31918716430664,-25.29448890686035,17.571897506713867,-27.157855987548828,17.676162719726562,0.0
274,-1.935302734375,-2.845703125,-4.945068359375,7.572519302368164,-7.312977313995361,4.916030406951904,-28.18621063232422,18.737178802490234,0.0,24.3570499420166,-25.3310546875,17.596477508544922,-27.14022445678711,17.660423278808594,0.0
279,-1.93017578125,-2.84130859375,-4.94482421875,7.389312744140625,-7.221374034881592,4.488549709320068,-28.15876007080078,18.698318481445312,0.0,24.393997192382812,-25.36716079711914,17.618919372558594,-27.122976303100586,17.644363403320312,0.0
284,-1.933349609375,-2.843505859375,-4.944580078125,7.2366414070129395,-6.916030406951904,4.671755790710449,-28.173025131225586,18.724224090576172,0.0,24.430179595947266,-25.40174102783203,17.64227867126465,-27.10674285888672,17.630250930786133,0.0
289,-1.93115234375,-2.845703125,-4.94677734375,7.862595558166504,-7.312977313995361,4.335877895355225,-28.185848236083984,18.695274353027344,0.0,24.469491958618164,-25.43830680847168,17.663957595825195,-27.087648391723633,17.613597869873047,0.0
294,-1.9326171875,-2.847900390625,-4.94580078125,7.2366414070129395,-7.541984558105469,4.717557430267334,-28.205955505371094,18.70770835876465,0.0,24.505674362182617,-25.476016998291016,17.687545776367188,-27.07201385498047,17.596033096313477,0.0
299,-1.93603515625,-2.8447265625,-4.947021484375,7.496183395385742,-7.557251930236816,4.717557430267334,-28.16866111755371,18.740089416503906,0.0,24.543155670166016,-25.513803482055664,17.71113395690918,-27.054414749145508,17.578964233398438,0.0
304,-1.932373046875,-2.845458984375,-4.93994140625,7.541984558105469,-7.557251930236816,4.641221523284912,-28.21042823791504,18.724729537963867,0.0,24.58086585998535,-25.551589965820312,17.73434066772461,-27.037321090698242,17.56161880493164,0.0
309,-1.93017578125,-2.842529296875,-4.946044921875,7.41984748840332,-8.076335906982422,4.6259541511535645,-28.163894653320312,18.693235397338867,0.0,24.617965698242188,-25.59197235107422,17.757471084594727,-27.020029067993164,17.54118537902832,0.0
314,-1.935546875,-2.841064453125,-4.94287109375,7.541984558105469,-7.297709941864014,4.58015251159668,-28.156097412109375,18.752269744873047,0.0,24.655675888061523,-25.628461837768555,17.780372619628906,-27.00201416015625,17.5256290435791,0.0
319,-1.935546875,-2.8427734375,-4.94775390625,7.312977313995361,-7.404580116271973,4.58015251159668,-28.1500244140625,18.736726760864258,0.0,24.692241668701172,-25.665485382080078,17.803274154663086,-26.985048294067383,17.50925636291504,0.0
324,-1.93310546875,-2.845703125,-4.939697265625,7.358778476715088,-7.557251930236816,4.106870174407959,-28.212299346923828,18.731605529785156,0.0,24.729036331176758,-25.703271865844727,17.823808670043945,-26.968881607055664,17.492034912109375,0.0
329,-1.93408203125,-2.843994140625,-4.936767578125,7.4809160232543945,-7.465648651123047,4.687022686004639,-28.208633422851562,18.750783920288086,0.0,24.766441345214844,-25.7406005859375,17.847244262695312,-26.95203971862793,17.47557258605957,0.0
334,-1.928955078125,-2.843994140625,-4.937255859375,7.007633686065674,-7.328244209289551,4.488549709320068,-28.214996337890625,18.703248977661133,0.0,24.80147933959961,-25.77724266052246,17.869686126708984,-26.937623977661133,17.45901870727539,0.0
340,-1.929931640625,-2.84814453125,-4.939208984375,7.328244209289551,-7.14503812789917,4.85496187210083,-28.24002456665039,18.7005615234375,0.0,24.845449447631836,-25.820112228393555,17.898815155029297,-26.914793014526367,17.436315536499023,0.0
345,-1.9296875,-2.8505859375,-4.937744140625,7.5877861976623535,-7.312977313995361,4.931297779083252,-28.26704216003418,18.698509216308594,0.0,24.88338851928711,-25.856678009033203,17.923471450805664,-26.898405075073242,17.419883728027344,0.0
350,-1.924560546875,-2.849365234375,-4.9345703125,7.404580116271973,-7.755725383758545,4.58015251159668,-28.278549194335938,18.662504196166992,0.0,24.920412063598633,-25.895456314086914,17.946372985839844,-26.883075714111328,17.400720596313477,0.0
355,-1.927734375,-2.8466796875,-4.939208984375,7.404580116271973,-7.72519063949585,4.824427604675293,-28.231338500976562,18.682979583740234,0.0,24.957435607910156,-25.93408203125,17.970495223999023,-26.86699867248535,17.38206672668457,0.0
360,-1.925537109375,-2.8466796875,-4.943359375,7.862595558166504,-7.603053569793701,4.931297779083252,-28.2175235748291,18.652206420898438,0.0,24.996747970581055,-25.972097396850586,17.99515151977539,-26.848447799682617,17.36359405517578,0.0
365,-1.933349609375,-2.84423828125,-4.9462890625,7.740458011627197,-7.603053569793701,4.3053436279296875,-28.17201805114746,18.718585968017578,0.0,25.035449981689453,-26.010112762451172,18.016677856445312,-26.82985496520996,17.346141815185547,0.0
370,-1.93212890625,-2.8466796875,-4.93115234375,7.70992374420166,-7.786259651184082,4.641221523284912,-28.257944107055664,18.74395179748535,0.0,25.073999404907227,-26.049043655395508,18.039884567260742,-26.81270408630371,17.32817268371582,0.0
375,-1.9326171875,-2.844970703125,-4.9423828125,7.511450290679932,-7.3740458488464355,4.58015251159668,-28.19570541381836,18.721210479736328,0.0,25.111557006835938,-26.085914611816406,18.062786102294922,-26.795635223388672,17.311925888061523,0.0
380,-1.9306640625,-2.845703125,-4.942138671875,7.541984558105469,-7.2366414070129395,4.534351348876953,-28.20606803894043,18.703136444091797,0.0,25.149267196655273,-26.12209701538086,18.085458755493164,-26.77857780456543,17.296100616455078,0.0
385,-1.932861328125,-2.84228515625,-4.9384765625,7.450381755828857,-7.297709941864014,4.045801639556885,-28.18913459777832,18.73785400390625,0.0,25.186519622802734,-26.158586502075195,18.105688095092773,-26.76174545288086,17.280460357666016,0.0
390,-1.935302734375,-2.844970703125,-4.93603515625,7.465648651123047,-7.175572395324707,4.610687255859375,-28.2178955078125,18.76224136352539,0.0,25.223848342895508,-26.1944637298584,18.128742218017578,-26.74525260925293,17.265756607055664,0.0
395,-1.92919921875,-2.846435546875,-4.935791015625,7.465648651123047,-7.43511438369751,4.488549709320068,-28.24123191833496,18.705602645874023,0.0,25.26117706298828,-26.231639862060547,18.15118408203125,-26.729087829589844,17.24896812438965,0.0
400,-1.931884765625,-2.842041015625,-4.93701171875,7.312977313995361,-7.6946563720703125,4.793893337249756,-28.19482421875,18.73330307006836,0.0,25.29774284362793,-26.270112991333008,18.175153732299805,-26.713041305541992,17.231292724609375,0.0
405,-1.9287109375,-2.848876953125,-4.94384765625,7.786259651184082,-7.740458011627197,4.717557430267334,-28.228710174560547,18.676189422607422,0.0,25.336673736572266,-26.308815002441406,18.198741912841797,-26.69512367248535,17.212644577026367,0.0
410,-1.93115234375,-2.843994140625,-4.943603515625,7.389312744140625,-7.648854732513428,4.58015251159668,-28.18480110168457,18.70626449584961,0.0,25.373620986938477,-26.34705924987793,18.221643447875977,-26.67860221862793,17.194896697998047,0.0
415,-1.934814453125,-2.84765625,-4.94287109375,7.206106662750244,-7.41984748840332,4.931297779083252,-28.21257781982422,18.735620498657227,0.0,25.409650802612305,-26.384159088134766,18.246299743652344,-26.66337013244629,17.17869758605957,0.0
421,-1.9326171875,-2.843994140625,-4.943359375,7.72519063949585,-7.328244209289551,4.732824325561523,-28.183425903320312,18.72011375427246,0.0,25.44827651977539,-26.420801162719727,18.26996421813965,-26.64518928527832,17.16275405883789,0.0
426,-1.931396484375,-2.84423828125,-4.940673828125,7.511450290679932,-7.465648651123047,4.732824325561523,-28.198719024658203,18.71584701538086,0.0,25.493345260620117,-26.465595245361328,18.29836082458496,-26.62091827392578,17.138748168945312,0.0
431,-1.93212890625,-2.84130859375,-4.94384765625,7.740458011627197,-7.450381755828857,4.641221523284912,-28.15965461730957,18.718507766723633,0.0,25.532047271728516,-26.50284767150879,18.32156753540039,-26.602542877197266,17.122331619262695,0.0
436,-1.92919921875,-2.84228515625,-4.94580078125,7.312977313995361,-6.916030406951904,4.641221523284912,-28.164461135864258,18.685449600219727,0.0,25.568613052368164,-26.53742790222168,18.34477424621582,-26.586381912231445,17.10814666748047,0.0
441,-1.93408203125,-2.845703125,-4.944091796875,7.343511581420898,-7.3740458488464355,4.809160232543945,-28.19229507446289,18.728769302368164,0.0,25.605331420898438,-26.574298858642578,18.368820190429688,-26.570438385009766,17.092239379882812,0.0
446,-1.930419921875,-2.84716796875,-4.9443359375,7.343511581420898,-7.496183395385742,4.503816604614258,-28.209545135498047,18.692899703979492,0.0,25.64204978942871,-26.611780166625977,18.391338348388672,-26.554723739624023,17.075288772583008,0.0
451,-1.931640625,-2.84521484375,-4.93798828125,7.541984558105469,-7.526717662811279,4.946564674377441,-28.2177677154541,18.723669052124023,0.0,25.679759979248047,-26.6494140625,18.41607093811035,-26.53813934326172,17.058597564697266,0.0
456,-1.928955078125,-2.8447265625,-4.945068359375,7.404580116271973,-7.4809160232543945,4.702290058135986,-28.18840217590332,18.681476593017578,0.0,25.71678352355957,-26.686819076538086,18.43958282470703,-26.52189064025879,17.04163360595703,0.0
461,-1.93212890625,-2.84716796875,-4.9375,7.603053569793701,-7.404580116271973,4.56488561630249,-28.23539924621582,18.72638511657715,0.0,25.754798889160156,-26.72384262084961,18.4624080657959,-26.505252838134766,17.025625228881836,0.0
466,-1.92626953125,-2.8447265625,-4.9443359375,7.328244209289551,-7.572519302368164,4.427480697631836,-28.19585609436035,18.65920066833496,0.0,25.791440963745117,-26.76170539855957,18.48454475402832,-26.489513397216797,17.00798988342285,0.0
471,-1.93603515625,-2.8466796875,-4.9462890625,7.404580116271973,-7.70992374420166,4.671755790710449,-28.188091278076172,18.73905372619629,0.0,25.82846450805664,-26.800254821777344,18.507904052734375,-26.473318099975586,16.990676879882812,0.0
476,-1.931884765625,-2.845458984375,-4.944091796875,7.572519302368164,-7.160305500030518,4.85496187210083,-28.193843841552734,18.70934295654297,0.0,25.8663272857666,-26.836055755615234,18.53217887878418,-26.456382751464844,16.975757598876953,0.0
481,-1.93115234375,-2.845947265625,-4.939697265625,7.328244209289551,-7.358778476715088,4.56488561630249,-28.217548370361328,18.713624954223633,0.0,25.902969360351562,-26.87285041809082,18.555004119873047,-26.440963745117188,16.95991325378418,0.0
486,-1.93408203125,-2.845458984375,-4.942138671875,7.511450290679932,-6.961832046508789,4.732824325561523,-28.198423385620117,18.734312057495117,0.0,25.940526962280273,-26.90765953063965,18.57866859436035,-26.424427032470703,16.946290969848633,0.0
491,-1.935302734375,-2.844482421875,-4.93603515625,7.251908302307129,-6.961832046508789,4.687022686004639,-28.21379852294922,18.76298713684082,0.0,25.97678565979004,-26.942468643188477,18.60210418701172,-26.409379959106445,16.932992935180664,0.0
496,-1.92919921875,-2.845947265625,-4.933349609375,7.465648651123047,-7.389312744140625,4.56488561630249,-28.247385025024414,18.712810516357422,0.0,26.014114379882812,-26.979415893554688,18.624929428100586,-26.3936710357666,16.916990280151367,0.0
502,-1.93212890625,-2.84814453125,-4.9365234375,7.251908302307129,-7.2366414070129395,4.900763511657715,-28.2476863861084,18.727479934692383,0.0,26.050373077392578,-27.01559829711914,18.649433135986328,-26.379037857055664,16.901935577392578,0.0
507,-1.93310546875,-2.84765625,-4.94189453125,7.389312744140625,-8.061068534851074,5.007633686065674,-28.219467163085938,18.722808837890625,0.0,26.094709396362305,-27.06396484375,18.679479598999023,-26.356138229370117,16.87483024597168,0.0
512,-1.93115234375,-2.844970703125,-4.93505859375,7.72519063949585,-7.786259651184082,4.671755790710449,-28.22880744934082,18.727397918701172,0.0,26.13333511352539,-27.102895736694336,18.702838897705078,-26.33909034729004,16.85725212097168,0.0
517,-1.933837890625,-2.845703125,-4.939453125,7.358778476715088,-8.045801162719727,4.824427604675293,-28.212120056152344,18.738853454589844,0.0,26.170129776000977,-27.143125534057617,18.726961135864258,-26.323698043823242,16.838560104370117,0.0
522,-1.927490234375,-2.843505859375,-4.943359375,7.832061290740967,-7.404580116271973,4.85496187210083,-28.187711715698242,18.674638748168945,0.0,26.20928955078125,-27.18014907836914,18.751235961914062,-26.305713653564453,16.822376251220703,0.0
527,-1.9326171875,-2.845703125,-4.93896484375,7.648854732513428,-7.526717662811279,4.732824325561523,-28.216169357299805,18.729143142700195,0.0,26.247533798217773,-27.217782974243164,18.774900436401367,-26.288997650146484,16.806222915649414,0.0
532,-1.92822265625,-2.843017578125,-4.936279296875,7.175572395324707,-7.251908302307129,4.824427604675293,-28.21209716796875,18.700712203979492,0.0,26.283411026000977,-27.25404167175293,18.799022674560547,-26.27461051940918,16.7911434173584,0.0
537,-1.928466796875,-2.84326171875,-4.943359375,7.496183395385742,-7.221374034881592,4.29007625579834,-28.18406867980957,18.68381690979004,0.0,26.320892333984375,-27.29014778137207,18.820472717285156,-26.258338928222656,16.776050567626953,0.0
542,-1.932861328125,-2.8427734375,-4.940673828125,7.786259651184082,-7.2366414070129395,4.656488418579102,-28.184030532836914,18.731287002563477,0.0,26.35982322692871,-27.326330184936523,18.8437557220459,-26.240665435791016,16.761415481567383,0.0
547,-1.93310546875,-2.841552734375,-4.941162109375,7.5877861976623535,-7.114503860473633,4.351145267486572,-28.171342849731445,18.734054565429688,0.0,26.397762298583984,-27.361902236938477,18.865510940551758,-26.22388458251953,16.747426986694336,0.0
552,-1.930908203125,-2.84423828125,-4.935791015625,7.206106662750244,-7.526717662811279,4.732824325561523,-28.219987869262695,18.724374771118164,0.0,26.433792114257812,-27.3995361328125,18.889175415039062,-26.209552764892578,16.731304168701172,0.0
557,-1.931884765625,-2.84814453125,-4.934814453125,7.8015265464782715,-7.557251930236816,5.068702220916748,-28.255260467529297,18.729801177978516,0.0,26.47279930114746,-27.43732261657715,18.914518356323242,-26.192659378051758,16.715118408203125,0.0
562,-1.93359375,-2.843505859375,-4.938232421875,7.6946563720703125,-7.832061290740967,4.778625965118408,-28.199199676513672,18.743242263793945,0.0,26.511272430419922,-27.476482391357422,18.938411712646484,-26.17574119567871,16.6977481842041,0.0
567,-1.9306640625,-2.84619140625,-4.9365234375,7.4809160232543945,-7.70992374420166,4.778625965118408,-28.233707427978516,18.71725082397461,0.0,26.548677444458008,-27.515031814575195,18.962305068969727,-26.160282135009766,16.680753707885742,0.0
572,-1.932373046875,-2.849853515625,-4.937255859375,7.221374034881592,-7.72519063949585,4.946564674377441,-28.258541107177734,18.725130081176758,0.0,26.58478355407715,-27.55365753173828,18.987037658691406,-26.146392822265625,16.663808822631836,0.0
577,-1.933349609375,-2.847412109375,-4.94287109375,7.328244209289551,-7.923664093017578,4.671755790710449,-28.21293067932129,18.722797393798828,0.0,26.62142562866211,-27.59327507019043,19.01039695739746,-26.131507873535156,16.64590072631836,0.0
583,-1.929931640625,-2.846923828125,-4.941650390625,7.450381755828857,-7.160305500030518,4.85496187210083,-28.21954917907715,18.695966720581055,0.0,26.65867805480957,-27.62907600402832,19.034671783447266,-26.11610984802246,16.631547927856445,0.0
588,-1.9306640625,-2.84814453125,-4.951904296875,7.404580116271973,-7.3740458488464355,4.58015251159668,-28.18565559387207,18.67363739013672,0.0,26.703105926513672,-27.673320770263672,19.062152862548828,-26.09333038330078,16.60866928100586,0.0
593,-1.9326171875,-2.84619140625,-4.9423828125,7.43511438369751,-6.641221523284912,4.549618244171143,-28.205942153930664,18.719348907470703,0.0,26.74028205871582,-27.706527709960938,19.084901809692383,-26.078039169311523,16.597288131713867,0.0
598,-1.93017578125,-2.847412109375,-4.939453125,7.343511581420898,-7.007633686065674,4.656488418579102,-28.232458114624023,18.70323371887207,0.0,26.777000427246094,-27.741565704345703,19.108184814453125,-26.06349754333496,16.583919525146484,0.0
603,-1.931884765625,-2.84521484375,-4.9365234375,7.312977313995361,-7.206106662750244,5.038167953491211,-28.2235107421875,18.729751586914062,0.0,26.813566207885742,-27.77759552001953,19.13337516784668,-26.049036026000977,16.569847106933594,0.0
608,-1.9306640625,-2.84326171875,-4.939697265625,7.41984748840332,-7.557251930236816,4.259541988372803,-28.195816040039062,18.713315963745117,0.0,26.850666046142578,-27.81538200378418,19.154672622680664,-26.033790588378906,16.55388832092285,0.0
613,-1.93212890625,-2.841552734375,-4.940185546875,7.4809160232543945,-7.526717662811279,4.793893337249756,-28.177030563354492,18.72783851623535,0.0,26.888071060180664,-27.853015899658203,19.17864227294922,-26.018085479736328,16.53826141357422,0.0
618,-1.931884765625,-2.844482421875,-4.938232421875,7.511450290679932,-7.633587837219238,4.946564674377441,-28.2101993560791,18.726341247558594,0.0,26.925628662109375,-27.891183853149414,19.2033748626709,-26.002593994140625,16.522125244140625,0.0
623,-1.93310546875,-2.84814453125,-4.945068359375,7.4809160232543945,-7.70992374420166,4.85496187210083,-28.210268020629883,18.71367073059082,0.0,26.96303367614746,-27.929733276367188,19.227649688720703,-25.987287521362305,16.50552749633789,0.0
628,-1.927001953125,-2.84814453125,-4.94189453125,7.633587837219238,-7.847328186035156,4.717557430267334,-28.23355484008789,18.66705322265625,0.0,27.001201629638672,-27.968969345092773,19.251237869262695,-25.971487045288086,16.487838745117188,0.0
633,-1.929443359375,-2.84619140625,-4.936767578125,7.70992374420166,-7.664122104644775,4.458015441894531,-28.23468589782715,18.70559310913086,0.0,27.039751052856445,-28.00728988647461,19.273527145385742,-25.95535659790039,16.47149085998535,0.0
638,-1.9296875,-2.8466796875,-4.938720703125,7.221374034881592,-7.3740458488464355,4.839694499969482,-28.230186462402344,18.701885223388672,0.0,27.075857162475586,-28.044160842895508,19.297725677490234,-25.941640853881836,16.456588745117188,0.0
643,-1.927001953125,-2.84521484375,-4.934814453125,7.740458011627197,-7.4809160232543945,4.29007625579834,-28.238693237304688,18.690221786499023,0.0,27.114559173583984,-28.081565856933594,19.319175720214844,-25.92545509338379,16.441076278686523,0.0
648,-1.9306640625,-2.843994140625,-4.935546875,7.297709941864014,-7.312977313995361,4.6259541511535645,-28.219362258911133,18.723190307617188,0.0,27.15104866027832,-28.118131637573242,19.34230613708496,-25.911317825317383,16.42675018310547,0.0
653,-1.9296875,-2.847412109375,-4.938232421875,7.465648651123047,-6.885496139526367,4.992366313934326,-28.238378524780273,18.702058792114258,0.0,27.188377380371094,-28.152559280395508,19.367267608642578,-25.896554946899414,16.414365768432617,0.0
658,-1.9326171875,-2.83984375,-4.941650390625,7.312977313995361,-7.175572395324707,4.549618244171143,-28.1557559967041,18.730960845947266,0.0,27.224943161010742,-28.18843650817871,19.390016555786133,-25.881792068481445,16.40083122253418,0.0
663,-1.932861328125,-2.84423828125,-4.947265625,7.679389476776123,-7.282442569732666,4.870229244232178,-28.168733596801758,18.711605072021484,0.0,27.26333999633789,-28.2248477935791,19.41436767578125,-25.865373611450195,16.38660430908203,0.0
669,-1.931640625,-2.8408203125,-4.937744140625,7.358778476715088,-7.541984558105469,4.7633585929870605,-28.181907653808594,18.731019973754883,0.0,27.307493209838867,-28.270099639892578,19.442947387695312,-25.84347152709961,16.363876342773438,0.0
674,-1.932373046875,-2.8505859375,-4.93896484375,7.541984558105469,-7.9083967208862305,4.671755790710449,-28.257511138916016,18.71949005126953,0.0,27.345203399658203,-28.309640884399414,19.466306686401367,-25.82876205444336,16.346805572509766,0.0
679,-1.931884765625,-2.84326171875,-4.94287109375,7.877862453460693,-7.816793918609619,5.129770755767822,-28.180524826049805,18.715919494628906,0.0,27.384592056274414,-28.348724365234375,19.491954803466797,-25.81170082092285,16.330209732055664,0.0
684,-1.930908203125,-2.847412109375,-4.949951171875,7.618320465087891,-7.679389476776123,4.778625965118408,-28.18729019165039,18.682098388671875,0.0,27.422683715820312,-28.387121200561523,19.51584815979004,-25.796045303344727,16.31403160095215,0.0
689,-1.93017578125,-2.84521484375,-4.939453125,7.648854732513428,-7.343511581420898,5.007633686065674,-28.214027404785156,18.70658302307129,0.0,27.460927963256836,-28.423839569091797,19.54088592529297,-25.780529022216797,16.29979133605957,0.0
694,-1.9326171875,-2.8447265625,-4.940185546875,7.572519302368164,-7.43511438369751,4.610687255859375,-28.202861785888672,18.727399826049805,0.0,27.498790740966797,-28.461015701293945,19.563940048217773,-25.765329360961914,16.285320281982422,0.0
699,-1.929443359375,-2.846435546875,-4.935546875,7.618320465087891,-7.206106662750244,4.732824325561523,-28.241857528686523,18.708452224731445,0.0,27.536882400512695,-28.497045516967773,19.587604522705078,-25.750301361083984,16.2718448638916,0.0
704,-1.9296875,-2.84716796875,-4.935791015625,7.664122104644775,-7.3740458488464355,4.702290058135986,-28.2465763092041,18.70888900756836,0.0,27.57520294189453,-28.533916473388672,19.611116409301758,-25.735126495361328,16.257564544677734,0.0
709,-1.9326171875,-2.84521484375,-4.93603515625,7.450381755828857,-7.190839767456055,4.702290058135986,-28.224355697631836,18.737651824951172,0.0,27.612455368041992,-28.569869995117188,19.634628295898438,-25.72084617614746,16.244489669799805,0.0
714,-1.9326171875,-2.84716796875,-4.938720703125,7.450381755828857,-7.389312744140625,4.702290058135986,-28.22947883605957,18.727554321289062,0.0,27.649707794189453,-28.6068172454834,19.658140182495117,-25.706645965576172,16.23036003112793,0.0
719,-1.93310546875,-2.842041015625,-4.9384765625,7.572519302368164,-7.541984558105469,4.473282337188721,-28.18668556213379,18.740428924560547,0.0,27.687570571899414,-28.644527435302734,19.680505752563477,-25.691486358642578,16.215621948242188,0.0
724,-1.9326171875,-2.84619140625,-4.930908203125,7.526717662811279,-7.816793918609619,4.717557430267334,-28.25406837463379,18.749752044677734,0.0,27.725204467773438,-28.683610916137695,19.70409393310547,-25.677202224731445,16.19964599609375,0.0
729,-1.93212890625,-2.847412109375,-4.939453125,7.5877861976623535,-8.015267372131348,4.748091697692871,-28.22925567626953,18.720842361450195,0.0,27.76314353942871,-28.72368812561035,19.727834701538086,-25.66242790222168,16.182476043701172,0.0
734,-1.92822265625,-2.845703125,-4.9482421875,7.664122104644775,-7.70992374420166,4.885496139526367,-28.184499740600586,18.665014266967773,0.0,27.801464080810547,-28.762237548828125,19.752262115478516,-25.646915435791016,16.166383743286133,0.0
739,-1.9296875,-2.84521484375,-4.94775390625,7.450381755828857,-7.251908302307129,4.366412162780762,-28.18006134033203,18.680240631103516,0.0,27.838716506958008,-28.79849624633789,19.774093627929688,-25.632471084594727,16.152751922607422,0.0
744,-1.932861328125,-2.84765625,-4.94091796875,7.389312744140625,-7.541984558105469,4.534351348876953,-28.223962783813477,18.723194122314453,0.0,27.87566375732422,-28.836206436157227,19.79676628112793,-25.618755340576172,16.138093948364258,0.0
750,-1.930419921875,-2.84765625,-4.940185546875,7.511450290679932,-6.992366313934326,4.809160232543945,-28.231033325195312,18.703126907348633,0.0,27.920732498168945,-28.87816047668457,19.825620651245117,-25.597135543823242,16.119144439697266,0.0
755,-1.931884765625,-2.84765625,-4.939208984375,7.389312744140625,-6.946564674377441,4.427480697631836,-28.23272705078125,18.718914031982422,0.0,27.957679748535156,-28.912893295288086,19.84775733947754,-25.583681106567383,16.10757064819336,0.0
760,-1.9345703125,-2.841796875,-4.937744140625,7.664122104644775,-7.41984748840332,4.0916032791137695,-28.185300827026367,18.755952835083008,0.0,27.996000289916992,-28.949993133544922,19.868215560913086,-25.568479537963867,16.093990325927734,0.0
765,-1.934814453125,-2.84521484375,-4.9404296875,7.5877861976623535,-6.717557430267334,4.58015251159668,-28.202333450317383,18.745813369750977,0.0,28.033939361572266,-28.98358154296875,19.891117095947266,-25.553852081298828,16.083833694458008,0.0
770,-1.925537109375,-2.843017578125,-4.946533203125,7.41984748840332,-7.679389476776123,4.473282337188721,-28.173511505126953,18.64939308166504,0.0,28.0710391998291,-29.0219783782959,19.913482666015625,-25.53984832763672,16.06807518005371,0.0
775,-1.92822265625,-2.84375,-4.939697265625,7.541984558105469,-7.9083967208862305,4.824427604675293,-28.20391082763672,18.690553665161133,0.0,28.108749389648438,-29.061519622802734,19.937604904174805,-25.525541305541992,16.051593780517578,0.0
780,-1.93408203125,-2.843994140625,-4.946533203125,7.465648651123047,-7.862595558166504,4.534351348876953,-28.167753219604492,18.72490882873535,0.0,28.14607810974121,-29.100831985473633,19.960277557373047,-25.511341094970703,16.035696029663086,0.0
785,-1.934326171875,-2.845703125,-4.942138671875,7.43511438369751,-7.8015265464782715,4.824427604675293,-28.200071334838867,18.73613929748535,0.0,28.18325424194336,-29.13983917236328,19.984399795532227,-25.49761199951172,16.020252227783203,0.0
790,-1.931884765625,-2.844482421875,-4.942138671875,7.404580116271973,-7.954198360443115,4.473282337188721,-28.193832397460938,18.71599769592285,0.0,28.220277786254883,-29.179609298706055,20.006765365600586,-25.48401641845703,16.003929138183594,0.0
795,-1.9306640625,-2.848388671875,-4.943115234375,7.312977313995361,-7.328244209289551,4.687022686004639,-28.224491119384766,18.69646644592285,0.0,28.25684356689453,-29.216251373291016,20.030200958251953,-25.471174240112305,15.990602493286133,0.0
800,-1.9296875,-2.84326171875,-4.938232421875,7.389312744140625,-6.977099418640137,4.610687255859375,-28.203554153442383,18.70838737487793,0.0,28.293790817260742,-29.251136779785156,20.053255081176758,-25.457805633544922,15.97915267944336,0.0
805,-1.934326171875,-2.845703125,-4.942138671875,7.114503860473633,-6.85496187210083,4.56488561630249,-28.200071334838867,18.73613929748535,0.0,28.329362869262695,-29.285411834716797,20.076080322265625,-25.445804595947266,15.968563079833984,0.0
810,-1.93212890625,-2.844482421875,-4.935791015625,7.43511438369751,-6.839694499969482,4.595419883728027,-28.220035552978516,18.735013961791992,0.0,28.366539001464844,-29.319610595703125,20.099058151245117,-25.43240737915039,15.958052635192871,0.0
815,-1.927490234375,-2.8427734375,-4.943115234375,7.740458011627197,-7.160305500030518,4.610687255859375,-28.18259048461914,18.6763973236084,0.0,28.405241012573242,-29.355411529541016,20.122112274169922,-25.417217254638672,15.945470809936523,0.0
820,-1.93017578125,-2.846435546875,-4.939697265625,7.496183395385742,-7.038167953491211,4.458015441894531,-28.223243713378906,18.704076766967773,0.0,28.44272232055664,-29.390602111816406,20.14440155029297,-25.40363311767578,15.933759689331055,0.0
825,-1.927734375,-2.846923828125,-4.94677734375,7.2366414070129395,-7.70992374420166,4.85496187210083,-28.20166015625,18.662626266479492,0.0,28.478904724121094,-29.42915153503418,20.168676376342773,-25.39119529724121,15.918395042419434,0.0
831,-1.9306640625,-2.848388671875,-4.94140625,7.679389476776123,-7.679389476776123,4.916030406951904,-28.231657028198242,18.70098304748535,0.0,28.524980545043945,-29.47522735595703,20.198171615600586,-25.369281768798828,15.895997047424316,0.0
836,-1.934814453125,-2.84423828125,-4.94677734375,7.14503812789917,-8.061068534851074,4.85496187210083,-28.16758155822754,18.730487823486328,0.0,28.560705184936523,-29.515533447265625,20.22244644165039,-25.357208251953125,15.879682540893555,0.0
841,-1.931884765625,-2.8427734375,-4.9453125,7.404580116271973,-7.770992279052734,4.610687255859375,-28.166213989257812,18.710201263427734,0.0,28.597728729248047,-29.55438804626465,20.245500564575195,-25.343862533569336,15.864700317382812,0.0
846,-1.931396484375,-2.845947265625,-4.94482421875,7.557251930236816,-7.526717662811279,4.7633585929870605,-28.19567108154297,18.7022647857666,0.0,28.635515213012695,-29.592021942138672,20.269317626953125,-25.330045700073242,15.850915908813477,0.0
851,-1.932373046875,-2.842041015625,-4.937255859375,7.358778476715088,-7.43511438369751,4.732824325561523,-28.19300079345703,18.737060546875,0.0,28.67230987548828,-29.62919807434082,20.29298210144043,-25.31723403930664,15.83791732788086,0.0
856,-1.932861328125,-2.84326171875,-4.947509765625,7.4809160232543945,-7.007633686065674,4.213740348815918,-28.15952491760254,18.712444305419922,0.0,28.709714889526367,-29.664236068725586,20.314050674438477,-25.30357551574707,15.826872825622559,0.0
861,-1.9365234375,-2.842529296875,-4.945068359375,7.450381755828857,-7.007633686065674,4.534351348876953,-28.15760040283203,18.753009796142578,0.0,28.746967315673828,-29.69927406311035,20.33672332763672,-25.290096282958984,15.816183090209961,0.0
866,-1.932373046875,-2.844970703125,-4.938720703125,7.41984748840332,-6.656488418579102,4.58015251159668,-28.211448669433594,18.72870635986328,0.0,28.784067153930664,-29.73255729675293,20.3596248626709,-25.277254104614258,15.80705451965332,0.0
871,-1.929443359375,-2.845458984375,-4.932373046875,7.450381755828857,-7.496183395385742,4.931297779083252,-28.246986389160156,18.718345642089844,0.0,28.821319580078125,-29.770038604736328,20.384281158447266,-25.26458740234375,15.793683052062988,0.0
876,-1.931884765625,-2.844970703125,-4.938720703125,7.389312744140625,-7.9083967208862305,4.702290058135986,-28.212249755859375,18.72430419921875,0.0,28.858266830444336,-29.809579849243164,20.407793045043945,-25.251976013183594,15.778358459472656,0.0
881,-1.93310546875,-2.84423828125,-4.94482421875,7.618320465087891,-7.847328186035156,4.381679534912109,-28.178544998168945,18.720264434814453,0.0,28.896358489990234,-29.84881591796875,20.42970085144043,-25.237991333007812,15.763362884521484,0.0
886,-1.930419921875,-2.84716796875,-4.9384765625,7.465648651123047,-7.572519302368164,4.427480697631836,-28.234106063842773,18.708389282226562,0.0,28.933687210083008,-29.88667869567871,20.45183753967285,-25.225261688232422,15.749690055847168,0.0
891,-1.93359375,-2.84716796875,-4.946044921875,7.4809160232543945,-7.8015265464782715,4.595419883728027,-28.19719886779785,18.71697235107422,0.0,28.971092224121094,-29.92568588256836,20.474815368652344,-25.212196350097656,15.734997749328613,0.0
896,-1.934814453125,-2.8408203125,-4.943603515625,7.2366414070129395,-7.862595558166504,4.56488561630249,-28.15218734741211,18.74410057067871,0.0,29.007274627685547,-29.964998245239258,20.49764060974121,-25.200021743774414,15.72027587890625,0.0
901,-1.9326171875,-2.84326171875,-4.946044921875,7.41984748840332,-7.297709941864014,4.702290058135986,-28.166048049926758,18.714120864868164,0.0,29.044374465942383,-30.001487731933594,20.52115249633789,-25.18708610534668,15.708169937133789,0.0
906,-1.934814453125,-2.849853515625,-4.941650390625,7.43511438369751,-6.717557430267334,4.381679534912109,-28.23610496520996,18.735498428344727,0.0,29.08155059814453,-30.035076141357422,20.543060302734375,-25.174678802490234,15.699148178100586,0.0
912,-1.93408203125,-2.844482421875,-4.936767578125,7.541984558105469,-7.114503860473633,4.641221523284912,-28.21273422241211,18.750038146972656,0.0,29.126802444458008,-30.077762603759766,20.570907592773438,-25.1541690826416,15.681285858154297,0.0
917,-1.93310546875,-2.84521484375,-4.936767578125,7.221374034881592,-7.160305500030518,4.641221523284912,-28.220481872558594,18.7401123046875,0.0,29.16290855407715,-30.113563537597656,20.594114303588867,-25.14289665222168,15.670254707336426,0.0
922,-1.93505859375,-2.8427734375,-4.94091796875,7.43511438369751,-7.465648651123047,4.748091697692871,-28.17940902709961,18.750444412231445,0.0,29.200084686279297,-30.15089225769043,20.617855072021484,-25.13026237487793,15.657819747924805,0.0
927,-1.93505859375,-2.846435546875,-4.934814453125,7.206106662750244,-7.511450290679932,5.114503860473633,-28.23570442199707,18.761037826538086,0.0,29.236114501953125,-30.18844985961914,20.6434268951416,-25.11925506591797,15.645278930664062,0.0
932,-1.93115234375,-2.842041015625,-4.942138671875,7.557251930236816,-8.19847297668457,4.916030406951904,-28.17454719543457,18.71311378479004,0.0,29.273900985717773,-30.229442596435547,20.668006896972656,-25.106046676635742,15.628989219665527,0.0
937,-1.92822265625,-2.84423828125,-4.942138671875,7.832061290740967,-7.572519302368164,4.687022686004639,-28.197772979736328,18.6833553314209,0.0,29.313060760498047,-30.267305374145508,20.691442489624023,-25.091705322265625,15.615638732910156,0.0
942,-1.930908203125,-2.84228515625,-4.941650390625,7.083969593048096,-7.862595558166504,4.931297779083252,-28.179040908813477,18.711833953857422,0.0,29.348480224609375,-30.306617736816406,20.71609878540039,-25.080982208251953,15.601122856140137,0.0
947,-1.9326171875,-2.842529296875,-4.940185546875,7.664122104644775,-7.389312744140625,4.7633585929870605,-28.184425354003906,18.730751037597656,0.0,29.38680076599121,-30.343564987182617,20.73991584777832,-25.06745147705078,15.58916187286377,0.0
952,-1.9296875,-2.845703125,-4.943115234375,7.4809160232543945,-7.2366414070129395,4.396946430206299,-28.203575134277344,18.691753387451172,0.0,29.424205780029297,-30.37974739074707,20.761899948120117,-25.055028915405273,15.57768726348877,0.0
957,-1.9306640625,-2.845458984375,-4.938720703125,7.633587837219238,-7.297709941864014,4.793893337249756,-28.218347549438477,18.71255111694336,0.0,29.462373733520508,-30.416236877441406,20.785869598388672,-25.042007446289062,15.566107749938965,0.0
962,-1.93408203125,-2.841796875,-4.94580078125,7.221374034881592,-6.702290058135986,4.473282337188721,-28.15239143371582,18.730192184448242,0.0,29.49847984313965,-30.449748992919922,20.80823516845703,-25.030559539794922,15.557656288146973,0.0
967,-1.934814453125,-2.846923828125,-4.94189453125,7.664122104644775,-6.702290058135986,4.992366313934326,-28.210527420043945,18.739322662353516,0.0,29.536800384521484,-30.483261108398438,20.83319664001465,-25.017404556274414,15.549286842346191,0.0
972,-1.933349609375,-2.841796875,-4.93896484375,7.358778476715088,-7.221374034881592,5.083969593048096,-28.182191848754883,18.741708755493164,0.0,29.57359504699707,-30.519367218017578,20.85861587524414,-25.005592346191406,15.538372039794922,0.0
977,-1.93017578125,-2.845703125,-4.93310546875,7.679389476776123,-7.221374034881592,4.793893337249756,-28.2447566986084,18.72264289855957,0.0,29.61199188232422,-30.55547332763672,20.882585525512695,-24.99271583557129,15.527339935302734,0.0
982,-1.935546875,-2.84326171875,-4.935546875,7.755725383758545,-7.679389476776123,4.534351348876953,-28.205196380615234,18.768352508544922,0.0,29.65077018737793,-30.593870162963867,20.905258178710938,-24.979198455810547,15.514423370361328,0.0
987,-1.93115234375,-2.845947265625,-4.940185546875,7.297709941864014,-7.938931465148926,4.7633585929870605,-28.21550178527832,18.71233367919922,0.0,29.687259674072266,-30.633563995361328,20.929075241088867,-24.96808433532715,15.499832153320312,0.0
993,-1.927001953125,-2.84716796875,-4.94384765625,7.389312744140625,-7.786259651184082,4.702290058135986,-28.21717643737793,18.66338348388672,0.0,29.731595993041992,-30.680280685424805,20.95728874206543,-24.949295043945312,15.47801685333252,0.0
998,-1.933349609375,-2.84619140625,-4.94189453125,7.511450290679932,-7.816793918609619,4.595419883728027,-28.206787109375,18.72724151611328,0.0,29.769153594970703,-30.719364166259766,20.980266571044922,-24.937244415283203,15.464387893676758,0.0
1003,-1.929931640625,-2.847412109375,-4.943603515625,7.572519302368164,-7.267175674438477,4.732824325561523,-28.215457916259766,18.690061569213867,0.0,29.807016372680664,-30.755699157714844,21.003931045532227,-24.924999237060547,15.453251838684082,0.0
1008,-1.934326171875,-2.8447265625,-4.93408203125,7.496183395385742,-7.022900581359863,4.85496187210083,-28.22564125061035,18.758991241455078,0.0,29.844497680664062,-30.790813446044922,21.02820587158203,-24.913253784179688,15.44389533996582,0.0
1013,-1.934326171875,-2.847412109375,-4.938720703125,7.633587837219238,-7.114503860473633,4.549618244171143,-28.228721618652344,18.742586135864258,0.0,29.882665634155273,-30.826385498046875,21.050954818725586,-24.900890350341797,15.433979034423828,0.0
1018,-1.93408203125,-2.839599609375,-4.934326171875,7.541984558105469,-7.221374034881592,4.5190839767456055,-28.181970596313477,18.76398277282715,0.0,29.92037582397461,-30.862491607666016,21.073551177978516,-24.888668060302734,15.423723220825195,0.0
1023,-1.928466796875,-2.847900390625,-4.937744140625,7.358778476715088,-7.099236488342285,4.793893337249756,-28.246524810791016,18.69159698486328,0.0,29.957170486450195,-30.897987365722656,21.09752082824707,-24.877893447875977,15.41354751586914,0.0
1028,-1.935302734375,-2.843505859375,-4.939453125,7.496183395385742,-7.41984748840332,4.549618244171143,-28.1912841796875,18.75541114807129,0.0,29.994651794433594,-30.935087203979492,21.120269775390625,-24.866046905517578,15.402298927307129,0.0
1033,-1.931640625,-2.845947265625,-4.9365234375,7.4809160232543945,-7.862595558166504,4.900763511657715,-28.230056762695312,18.726430892944336,0.0,30.03205680847168,-30.97439956665039,21.144773483276367,-24.854616165161133,15.38866901397705,0.0
1038,-1.931640625,-2.84521484375,-4.9384765625,7.328244209289551,-8.137404441833496,5.099236488342285,-28.215721130371094,18.722375869750977,0.0,30.06869888305664,-31.015087127685547,21.170269012451172,-24.8438720703125,15.373702049255371,0.0
1043,-1.931884765625,-2.84521484375,-4.943359375,7.465648651123047,-7.72519063949585,4.549618244171143,-28.194862365722656,18.711652755737305,0.0,30.106027603149414,-31.053712844848633,21.193017959594727,-24.83232307434082,15.36076545715332,0.0
1048,-1.927490234375,-2.846923828125,-4.942626953125,7.465648651123047,-7.6946563720703125,4.56488561630249,-28.219449996948242,18.671377182006836,0.0,30.143356323242188,-31.092185974121094,21.215843200683594,-24.821001052856445,15.347726821899414,0.0
1053,-1.9345703125,-2.84521484375,-4.943115234375,7.770992279052734,-7.297709941864014,4.549618244171143,-28.19148826599121,18.73649787902832,0.0,30.18221092224121,-31.12867546081543,21.23859214782715,-24.807992935180664,15.337204933166504,0.0
1058,-1.932861328125,-2.84765625,-4.945068359375,7.603053569793701,-7.251908302307129,4.610687255859375,-28.206575393676758,18.712215423583984,0.0,30.220226287841797,-31.164934158325195,21.261646270751953,-24.795984268188477,15.326761245727539,0.0
1063,-1.9345703125,-2.848876953125,-4.937744140625,7.160305500030518,-7.160305500030518,4.335877895355225,-28.24469566345215,18.745134353637695,0.0,30.256027221679688,-31.200735092163086,21.2833251953125,-24.786508560180664,15.317054748535156,0.0
1068,-1.9306640625,-2.845947265625,-4.93994140625,7.6946563720703125,-6.916030406951904,4.534351348876953,-28.21732521057129,18.70857810974121,0.0,30.29450035095215,-31.235315322875977,21.305997848510742,-24.774200439453125,15.308313369750977,0.0
1074,-1.928466796875,-2.8427734375,-4.9384765625,7.541984558105469,-7.099236488342285,4.396946430206299,-28.20043182373047,18.697473526000977,0.0,30.332210540771484,-31.270811080932617,21.32798194885254,-24.762571334838867,15.298602104187012,0.0
1079,-1.93212890625,-2.846435546875,-4.935791015625,7.404580116271973,-6.992366313934326,4.732824325561523,-28.23642349243164,18.73202896118164,0.0,30.376638412475586,-31.31276512145996,21.35637855529785,-24.744657516479492,15.282837867736816,0.0
1084,-1.931640625,-2.844482421875,-4.937255859375,7.450381755828857,-7.297709941864014,4.6259541511535645,-28.214693069458008,18.726726531982422,0.0,30.413890838623047,-31.349254608154297,21.37950897216797,-24.73379135131836,15.272533416748047,0.0
1089,-1.929443359375,-2.8466796875,-4.941650390625,7.618320465087891,-7.8015265464782715,4.961832046508789,-28.21830177307129,18.691936492919922,0.0,30.451982498168945,-31.388261795043945,21.40431785583496,-24.722158432006836,15.259502410888672,0.0
1094,-1.9287109375,-2.84423828125,-4.942626953125,7.312977313995361,-7.877862453460693,4.671755790710449,-28.194929122924805,18.68646812438965,0.0,30.488548278808594,-31.427650451660156,21.427677154541016,-24.7119083404541,15.246106147766113,0.0
1099,-1.933837890625,-2.843994140625,-4.943359375,7.2366414070129395,-7.6946563720703125,4.931297779083252,-28.181428909301758,18.731111526489258,0.0,30.524730682373047,-31.466123580932617,21.452333450317383,-24.70197296142578,15.234012603759766,0.0
1104,-1.9365234375,-2.84521484375,-4.943359375,7.648854732513428,-7.786259651184082,4.5190839767456055,-28.187267303466797,18.75344467163086,0.0,30.56297492980957,-31.505054473876953,21.474929809570312,-24.690067291259766,15.2216796875,0.0
1109,-1.929931640625,-2.846435546875,-4.939453125,7.343511581420898,-7.14503812789917,4.931297779083252,-28.224668502807617,18.7025203704834,0.0,30.599693298339844,-31.54077911376953,21.49958610534668,-24.680002212524414,15.212199211120605,0.0
1114,-1.931396484375,-2.847900390625,-4.942138671875,7.465648651123047,-7.175572395324707,5.068702220916748,-28.223291397094727,18.706390380859375,0.0,30.637022018432617,-31.576656341552734,21.52492904663086,-24.669355392456055,15.20262622833252,0.0
1119,-1.93212890625,-2.845703125,-4.93896484375,7.206106662750244,-7.038167953491211,4.549618244171143,-28.216970443725586,18.724740982055664,0.0,30.673051834106445,-31.611846923828125,21.547677993774414,-24.659988403320312,15.193902969360352,0.0
1124,-1.934326171875,-2.845703125,-4.9365234375,7.648854732513428,-7.083969593048096,4.244274616241455,-28.22359848022461,18.751020431518555,0.0,30.71129608154297,-31.647266387939453,21.568899154663086,-24.648502349853516,15.185173034667969,0.0
1129,-1.9296875,-2.846435546875,-4.935546875,7.43511438369751,-7.404580116271973,4.396946430206299,-28.241456985473633,18.71065330505371,0.0,30.748472213745117,-31.684289932250977,21.590883255004883,-24.638256072998047,15.174577713012695,0.0
1134,-1.930908203125,-2.843017578125,-4.938720703125,7.511450290679932,-7.404580116271973,4.549618244171143,-28.197460174560547,18.718475341796875,0.0,30.786029815673828,-31.7213134765625,21.613632202148438,-24.62734031677246,15.164080619812012,0.0
1139,-1.92822265625,-2.8447265625,-4.939453125,7.5877861976623535,-7.755725383758545,4.732824325561523,-28.2131290435791,18.689712524414062,0.0,30.8239688873291,-31.76009178161621,21.637296676635742,-24.6162052154541,15.151666641235352,0.0
1144,-1.927001953125,-2.846435546875,-4.945068359375,7.099236488342285,-7.755725383758545,4.366412162780762,-28.205921173095703,18.66127586364746,0.0,30.859464645385742,-31.798870086669922,21.659128189086914,-24.607486724853516,15.139097213745117,0.0
1149,-1.929931640625,-2.845947265625,-4.944091796875,7.72519063949585,-7.8015265464782715,4.809160232543945,-28.20113182067871,18.69099998474121,0.0,30.898090362548828,-31.83787727355957,21.68317413330078,-24.595651626586914,15.126575469970703,0.0
1155,-1.9326171875,-2.846435546875,-4.94287109375,7.72519063949585,-7.786259651184082,4.106870174407959,-28.205944061279297,18.71768569946289,0.0,30.936716079711914,-31.876808166503906,21.70370864868164,-24.58390235900879,15.114381790161133,0.0
1160,-1.93017578125,-2.84716796875,-4.936279296875,7.4809160232543945,-7.450381755828857,4.824427604675293,-28.243724822998047,18.71200180053711,0.0,30.98160171508789,-31.921510696411133,21.732654571533203,-24.56633758544922,15.096540451049805,0.0
1165,-1.930419921875,-2.847412109375,-4.93603515625,7.389312744140625,-7.496183395385742,4.183206081390381,-28.246397018432617,18.7144775390625,0.0,31.0185489654541,-31.95899200439453,21.753570556640625,-24.556764602661133,15.085979461669922,0.0
1170,-1.933349609375,-2.84521484375,-4.94677734375,7.526717662811279,-7.190839767456055,4.656488418579102,-28.178165435791016,18.715808868408203,0.0,31.056182861328125,-31.994945526123047,21.776853561401367,-24.54604148864746,15.076985359191895,0.0
1175,-1.92626953125,-2.841796875,-4.940185546875,7.404580116271973,-7.022900581359863,4.839694499969482,-28.18866539001465,18.67461585998535,0.0,31.09320640563965,-32.030059814453125,21.80105209350586,-24.536043167114258,15.068552017211914,0.0
1180,-1.9306640625,-2.84619140625,-4.937744140625,7.404580116271973,-7.206106662750244,4.4122138023376465,-28.228586196899414,18.714019775390625,0.0,31.130229949951172,-32.06608963012695,21.82311248779297,-24.52637481689453,15.059524536132812,0.0
1185,-1.93017578125,-2.846923828125,-4.934814453125,7.251908302307129,-7.41984748840332,4.58015251159668,-28.247825622558594,18.716251373291016,0.0,31.166488647460938,-32.103187561035156,21.84601402282715,-24.517642974853516,15.049484252929688,0.0
1190,-1.931396484375,-2.8447265625,-4.945556640625,7.923664093017578,-7.755725383758545,5.053435325622559,-28.182371139526367,18.702184677124023,0.0,31.206106185913086,-32.1419677734375,21.871280670166016,-24.505125045776367,15.037712097167969,0.0
1195,-1.9345703125,-2.8427734375,-4.941162109375,7.282442569732666,-7.816793918609619,4.748091697692871,-28.17918586730957,18.74539566040039,0.0,31.242517471313477,-32.181053161621094,21.895021438598633,-24.495824813842773,15.026002883911133,0.0
1200,-1.932861328125,-2.84765625,-4.939208984375,7.41984748840332,-7.954198360443115,4.56488561630249,-28.231124877929688,18.727718353271484,0.0,31.279617309570312,-32.2208251953125,21.9178466796875,-24.48625373840332,15.013534545898438,0.0
1205,-1.93359375,-2.842041015625,-4.94677734375,7.282442569732666,-7.526717662811279,4.534351348876953,-28.151153564453125,18.722835540771484,0.0,31.316028594970703,-32.25845718383789,21.940519332885742,-24.476818084716797,15.003209114074707,0.0
1210,-1.929443359375,-2.8486328125,-4.94189453125,7.618320465087891,-7.526717662811279,4.85496187210083,-28.233652114868164,18.688318252563477,0.0,31.3541202545166,-32.29608917236328,21.964794158935547,-24.466350555419922,14.992673873901367,0.0
1215,-1.93505859375,-2.843505859375,-4.943115234375,7.5877861976623535,-7.312977313995361,4.473282337188721,-28.176355361938477,18.743501663208008,0.0,31.392059326171875,-32.3326530456543,21.987159729003906,-24.45566177368164,14.98364543914795,0.0
1220,-1.9306640625,-2.843017578125,-4.939697265625,7.603053569793701,-7.221374034881592,4.931297779083252,-28.193767547607422,18.713687896728516,0.0,31.43007469177246,-32.36875915527344,22.011816024780273,-24.445068359375,14.97488784790039,0.0
1225,-1.9296875,-2.846435546875,-4.936767578125,7.557251930236816,-7.14503812789917,4.427480697631836,-28.2363338470459,18.70742416381836,0.0,31.46786117553711,-32.404483795166016,22.033952713012695,-24.435054779052734,14.9664945602417,0.0
1230,-1.9306640625,-2.843505859375,-4.94384765625,7.679389476776123,-7.343511581420898,4.732824325561523,-28.18048095703125,18.701961517333984,0.0,31.506258010864258,-32.441200256347656,22.0576171875,-24.424070358276367,14.95710563659668,0.0
1236,-1.932861328125,-2.846435546875,-4.933837890625,7.404580116271973,-7.5877861976623535,4.870229244232178,-28.24341583251953,18.743812561035156,0.0,31.54328155517578,-32.4791374206543,22.081968307495117,-24.414953231811523,14.946844100952148,0.0
1241,-1.933349609375,-2.845458984375,-4.939208984375,7.6946563720703125,-7.4809160232543945,5.206106662750244,-28.211896896362305,18.735471725463867,0.0,31.589448928833008,-32.52402114868164,22.113204956054688,-24.396638870239258,14.929741859436035,0.0
1246,-1.93115234375,-2.845703125,-4.939697265625,7.4809160232543945,-7.70992374420166,4.870229244232178,-28.215499877929688,18.71399688720703,0.0,31.626853942871094,-32.56257247924805,22.137556076049805,-24.387149810791016,14.918867111206055,0.0
1251,-1.9326171875,-2.8427734375,-4.938720703125,7.5877861976623535,-7.70992374420166,4.56488561630249,-28.192609786987305,18.73426055908203,0.0,31.664793014526367,-32.60112380981445,22.160381317138672,-24.377002716064453,14.908185958862305,0.0
1256,-1.933349609375,-2.841552734375,-4.937255859375,7.206106662750244,-7.938931465148926,4.687022686004639,-28.187299728393555,18.746612548828125,0.0,31.700822830200195,-32.64081954956055,22.18381690979004,-24.368755340576172,14.896502494812012,0.0
1261,-1.931640625,-2.84765625,-4.941650390625,7.70992374420166,-7.160305500030518,4.824427604675293,-28.222890853881836,18.710254669189453,0.0,31.73937225341797,-32.67662048339844,22.20793914794922,-24.358291625976562,14.88847541809082,0.0
1266,-1.931884765625,-2.845703125,-4.93310546875,7.465648651123047,-7.450381755828857,4.717557430267334,-28.2419490814209,18.73806381225586,0.0,31.776700973510742,-32.713871002197266,22.23152732849121,-24.34922218322754,14.879236221313477,0.0
1271,-1.93212890625,-2.842529296875,-4.9462890625,7.70992374420166,-7.114503860473633,4.778625965118408,-28.159683227539062,18.710189819335938,0.0,31.815250396728516,-32.74944305419922,22.255420684814453,-24.338382720947266,14.871500968933105,0.0
1276,-1.9296875,-2.843017578125,-4.9365234375,7.618320465087891,-7.511450290679932,4.3053436279296875,-28.20867156982422,18.71328353881836,0.0,31.853342056274414,-32.7869987487793,22.276947021484375,-24.328399658203125,14.861842155456543,0.0
1281,-1.930419921875,-2.841552734375,-4.938232421875,7.328244209289551,-7.450381755828857,4.58015251159668,-28.188011169433594,18.71759796142578,0.0,31.889984130859375,-32.824249267578125,22.299848556518555,-24.319747924804688,14.852558135986328,0.0
1286,-1.93212890625,-2.84716796875,-4.93994140625,7.450381755828857,-7.450381755828857,4.595419883728027,-28.225162506103516,18.71992301940918,0.0,31.927236557006836,-32.86149978637695,22.322826385498047,-24.310791015625,14.843328475952148,0.0
1291,-1.933349609375,-2.84228515625,-4.9384765625,7.450381755828857,-7.70992374420166,4.946564674377441,-28.18833351135254,18.742258071899414,0.0,31.964488983154297,-32.90005111694336,22.347558975219727,-24.301605224609375,14.8330078125,0.0
1296,-1.9287109375,-2.84521484375,-4.9404296875,7.496183395385742,-7.770992279052734,4.793893337249756,-28.21233367919922,18.6907901763916,0.0,32.00196838378906,-32.938907623291016,22.37152862548828,-24.292402267456055,14.822061538696289,0.0
1301,-1.935791015625,-2.84130859375,-4.939453125,7.496183395385742,-7.572519302368164,4.870229244232178,-28.172046661376953,18.763168334960938,0.0,32.03944778442383,-32.976768493652344,22.3958797454834,-24.282947540283203,14.812668800354004,0.0
1306,-1.928955078125,-2.8486328125,-4.94482421875,7.572519302368164,-8.0,4.442748069763184,-28.222171783447266,18.676183700561523,0.0,32.077308654785156,-33.01676940917969,22.418092727661133,-24.273513793945312,14.80057144165039,0.0
1311,-1.931884765625,-2.843994140625,-4.94384765625,7.496183395385742,-7.755725383758545,4.671755790710449,-28.182580947875977,18.71221923828125,0.0,32.11478805541992,-33.05554962158203,22.441452026367188,-24.26421546936035,14.790003776550293,0.0
1316,-1.93408203125,-2.84423828125,-4.94482421875,7.358778476715088,-7.282442569732666,4.396946430206299,-28.17694664001465,18.729061126708984,0.0,32.151580810546875,-33.09196090698242,22.463436126708984,-24.255598068237305,14.781953811645508,0.0
1322,-1.931396484375,-2.844970703125,-4.937255859375,7.41984748840332,-7.114503860473633,4.732824325561523,-28.21919059753418,18.723779678344727,0.0,32.19609832763672,-33.134647369384766,22.491832733154297,-24.239723205566406,14.767743110656738,0.0
1327,-1.929443359375,-2.844970703125,-4.94140625,7.8015265464782715,-7.038167953491211,4.7633585929870605,-28.204994201660156,18.6951847076416,0.0,32.235107421875,-33.169837951660156,22.515649795532227,-24.229307174682617,14.760845184326172,0.0
1332,-1.93603515625,-2.8447265625,-4.93994140625,7.5877861976623535,-7.190839767456055,4.717557430267334,-28.198280334472656,18.758853912353516,0.0,32.27304458618164,-33.20579147338867,22.53923797607422,-24.21994972229004,14.753665924072266,0.0
1337,-1.933837890625,-2.84375,-4.936279296875,7.328244209289551,-7.343511581420898,4.534351348876953,-28.20903205871582,18.75025177001953,0.0,32.30968475341797,-33.24250793457031,22.56191062927246,-24.21199607849121,14.745691299438477,0.0
1342,-1.927978515625,-2.841796875,-4.939208984375,7.4809160232543945,-7.267175674438477,4.5190839767456055,-28.189964294433594,18.692615509033203,0.0,32.34708786010742,-33.27884292602539,22.58450698852539,-24.20318031311035,14.737715721130371,0.0
1347,-1.929443359375,-2.841064453125,-4.94091796875,7.541984558105469,-7.389312744140625,4.687022686004639,-28.17426109313965,18.702423095703125,0.0,32.384796142578125,-33.31578826904297,22.607942581176758,-24.193984985351562,14.72923469543457,0.0
1352,-1.9345703125,-2.84619140625,-4.944091796875,7.14503812789917,-7.6946563720703125,5.099236488342285,-28.195589065551758,18.732421875,0.0,32.4205207824707,-33.35426330566406,22.633438110351562,-24.186952590942383,14.71948528289795,0.0
1357,-1.9326171875,-2.843994140625,-4.94580078125,7.618320465087891,-7.679389476776123,4.732824325561523,-28.17321014404297,18.713651657104492,0.0,32.45861053466797,-33.392662048339844,22.657102584838867,-24.17743682861328,14.709721565246582,0.0
1362,-1.9287109375,-2.843017578125,-4.941650390625,7.786259651184082,-7.14503812789917,4.687022686004639,-28.188779830932617,18.690906524658203,0.0,32.49754333496094,-33.42838668823242,22.680538177490234,-24.167240142822266,14.702492713928223,0.0
1367,-1.92724609375,-2.845947265625,-4.943115234375,7.633587837219238,-7.5877861976623535,4.183206081390381,-28.209611892700195,18.66937255859375,0.0,32.535709381103516,-33.46632385253906,22.701454162597656,-24.157995223999023,14.692940711975098,0.0
1372,-1.93359375,-2.848876953125,-4.943603515625,7.633587837219238,-7.068702220916748,4.656488418579102,-28.22174072265625,18.7208251953125,0.0,32.573875427246094,-33.50166702270508,22.7247371673584,-24.14887809753418,14.686373710632324,0.0
1377,-1.9296875,-2.843017578125,-4.939208984375,7.633587837219238,-7.328244209289551,4.503816604614258,-28.197412490844727,18.706172943115234,0.0,32.61204147338867,-33.538307189941406,22.747255325317383,-24.13962745666504,14.678436279296875,0.0
1382,-1.92822265625,-2.841552734375,-4.9375,7.496183395385742,-7.14503812789917,4.900763511657715,-28.194679260253906,18.69971466064453,0.0,32.64952087402344,-33.574031829833984,22.771759033203125,-24.131080627441406,14.671394348144531,0.0
1387,-1.93408203125,-2.845947265625,-4.93994140625,7.3740458488464355,-7.068702220916748,4.442748069763184,-28.211721420288086,18.73938751220703,0.0,32.6863899230957,-33.609375,22.79397201538086,-24.1232967376709,14.6650390625,0.0
1392,-1.932861328125,-2.841064453125,-4.94140625,7.14503812789917,-7.389312744140625,4.839694499969482,-28.166624069213867,18.731950759887695,0.0,32.72211456298828,-33.64632034301758,22.81817054748535,-24.116365432739258,14.657060623168945,0.0
1397,-1.931640625,-2.846923828125,-4.943603515625,7.41984748840332,-7.465648651123047,5.022900581359863,-28.208568572998047,18.706205368041992,0.0,32.759212493896484,-33.68364715576172,22.843284606933594,-24.108388900756836,14.648554801940918,0.0
1403,-1.929443359375,-2.843017578125,-4.94091796875,7.450381755828857,-7.603053569793701,4.839694499969482,-28.190650939941406,18.69944953918457,0.0,32.80391311645508,-33.72926712036133,22.87232208251953,-24.092849731445312,14.631885528564453,0.0
1408,-1.930908203125,-2.8466796875,-4.944580078125,7.297709941864014,-7.633587837219238,4.916030406951904,-28.203630447387695,18.69739532470703,0.0,32.84040069580078,-33.767433166503906,22.896902084350586,-24.085643768310547,14.622693061828613,0.0
1413,-1.92919921875,-2.84521484375,-4.9453125,7.2366414070129395,-7.083969593048096,4.671755790710449,-28.191076278686523,18.682289123535156,0.0,32.876583099365234,-33.802852630615234,22.92026138305664,-24.07868194580078,14.616165161132812,0.0
1418,-1.93408203125,-2.845703125,-4.94287109375,7.251908302307129,-7.664122104644775,4.5190839767456055,-28.197404861450195,18.73200035095215,0.0,32.912841796875,-33.8411750793457,22.94285774230957,-24.071714401245117,14.60713005065918,0.0
1423,-1.930908203125,-2.842529296875,-4.9404296875,7.511450290679932,-7.297709941864014,4.656488418579102,-28.186203002929688,18.71469497680664,0.0,32.95039749145508,-33.877662658691406,22.966140747070312,-24.063404083251953,14.599832534790039,0.0
1428,-1.932861328125,-2.842529296875,-4.932861328125,7.557251930236816,-6.931297779083252,4.335877895355225,-28.2147216796875,18.752376556396484,0.0,32.988182067871094,-33.91231918334961,22.98781967163086,-24.055103302001953,14.594648361206055,0.0
1433,-1.93408203125,-2.84375,-4.9345703125,7.328244209289551,-7.557251930236816,4.809160232543945,-28.215795516967773,18.756986618041992,0.0,33.02482223510742,-33.950103759765625,23.011865615844727,-24.047983169555664,14.586402893066406,0.0
1438,-1.93310546875,-2.841064453125,-4.943603515625,7.43511438369751,-7.358778476715088,4.732824325561523,-28.15703010559082,18.72832679748535,0.0,33.06199645996094,-33.98689651489258,23.03553009033203,-24.039947509765625,14.578977584838867,0.0
1443,-1.9306640625,-2.84521484375,-4.932861328125,7.2366414070129395,-7.251908302307129,4.503816604614258,-28.240880966186523,18.728443145751953,0.0,33.09817886352539,-34.023155212402344,23.058048248291016,-24.03352165222168,14.572113037109375,0.0
1448,-1.93017578125,-2.849365234375,-4.943359375,7.893129825592041,-7.572519302368164,4.610687255859375,-28.232452392578125,18.6899356842041,0.0,33.13764572143555,-34.06101608276367,23.08110237121582,-24.023799896240234,14.563413619995117,0.0
1453,-1.93212890625,-2.84814453125,-4.937255859375,7.4809160232543945,-7.511450290679932,4.7633585929870605,-28.244613647460938,18.725540161132812,0.0,33.175048828125,-34.09857177734375,23.10491943359375,-24.01625633239746,14.555306434631348,0.0
1458,-1.931640625,-2.84521484375,-4.939697265625,7.175572395324707,-7.664122104644775,4.732824325561523,-28.21060562133789,18.719144821166992,0.0,33.2109260559082,-34.13689422607422,23.128583908081055,-24.01002311706543,14.546432495117188,0.0
1463,-1.931884765625,-2.844482421875,-4.944580078125,7.343511581420898,-7.664122104644775,4.839694499969482,-28.183612823486328,18.709537506103516,0.0,33.247642517089844,-34.17521667480469,23.152782440185547,-24.002788543701172,14.537532806396484,0.0
1468,-1.930908203125,-2.844482421875,-4.9423828125,7.923664093017578,-7.664122104644775,4.793893337249756,-28.194408416748047,18.70655059814453,0.0,33.287261962890625,-34.213539123535156,23.1767520904541,-23.992780685424805,14.528654098510742,0.0
1473,-1.9287109375,-2.847900390625,-4.939697265625,7.877862453460693,-7.267175674438477,4.549618244171143,-28.23792839050293,18.688636779785156,0.0,33.32665252685547,-34.249874114990234,23.199501037597656,-23.983352661132812,14.521662712097168,0.0
1478,-1.9296875,-2.8447265625,-4.94482421875,7.496183395385742,-6.946564674377441,4.702290058135986,-28.188228607177734,18.688720703125,0.0,33.364131927490234,-34.28460693359375,23.223012924194336,-23.97551727294922,14.516292572021484,0.0
1484,-1.928955078125,-2.84814453125,-4.94287109375,7.72519063949585,-7.312977313995361,4.732824325561523,-28.22626495361328,18.68208122253418,0.0,33.410484313964844,-34.32848358154297,23.25140953063965,-23.959259033203125,14.501893997192383,0.0
1489,-1.929443359375,-2.8486328125,-4.94140625,7.877862453460693,-7.267175674438477,4.6259541511535645,-28.235702514648438,18.68960952758789,0.0,33.44987487792969,-34.36481857299805,23.274539947509766,-23.950071334838867,14.4951171875,0.0
1494,-1.93212890625,-2.8427734375,-4.941162109375,7.41984748840332,-7.2366414070129395,4.931297779083252,-28.183185577392578,18.723390579223633,0.0,33.48697280883789,-34.4010009765625,23.299196243286133,-23.942832946777344,14.488755226135254,0.0
1499,-1.92919921875,-2.845458984375,-4.9375,7.114503860473633,-7.526717662811279,4.229007720947266,-28.225866317749023,18.70256996154785,0.0,33.522544860839844,-34.43863296508789,23.320341110229492,-23.937440872192383,14.48083209991455,0.0
1504,-1.932861328125,-2.848388671875,-4.93603515625,7.664122104644775,-7.389312744140625,4.152671813964844,-28.250579833984375,18.735002517700195,0.0,33.56086730957031,-34.47557830810547,23.34110450744629,-23.92951011657715,14.473854064941406,0.0
1509,-1.929931640625,-2.846435546875,-4.936279296875,7.6946563720703125,-7.343511581420898,4.992366313934326,-28.23798179626465,18.710918426513672,0.0,33.599342346191406,-34.51229476928711,23.366065979003906,-23.921375274658203,14.466963768005371,0.0
1514,-1.927490234375,-2.846923828125,-4.942138671875,7.832061290740967,-7.8015265464782715,4.381679534912109,-28.22149658203125,18.672666549682617,0.0,33.63850402832031,-34.55130386352539,23.38797378540039,-23.912479400634766,14.457561492919922,0.0
1519,-1.9345703125,-2.847412109375,-4.9443359375,7.557251930236816,-7.603053569793701,4.641221523284912,-28.204797744750977,18.729915618896484,0.0,33.67628860473633,-34.589317321777344,23.41118049621582,-23.904874801635742,14.449589729309082,0.0
1524,-1.933837890625,-2.8427734375,-4.943115234375,7.526717662811279,-7.267175674438477,4.58015251159668,-28.172210693359375,18.733619689941406,0.0,33.71392059326172,-34.62565231323242,23.43408203125,-23.897228240966797,14.443347930908203,0.0
1529,-1.928466796875,-2.84619140625,-4.939697265625,7.4809160232543945,-7.450381755828857,4.671755790710449,-28.223995208740234,18.68903923034668,0.0,33.75132369995117,-34.66290283203125,23.457441329956055,-23.89020347595215,14.435911178588867,0.0
1534,-1.928955078125,-2.84326171875,-4.939697265625,7.557251930236816,-7.099236488342285,4.595419883728027,-28.1986141204834,18.697904586791992,0.0,33.78910827636719,-34.69839859008789,23.480419158935547,-23.882654190063477,14.430313110351562,0.0
1539,-1.93115234375,-2.84765625,-4.940185546875,7.740458011627197,-7.2366414070129395,4.717557430267334,-28.229833602905273,18.709728240966797,0.0,33.82781219482422,-34.734580993652344,23.50400733947754,-23.874446868896484,14.424135208129883,0.0
1544,-1.9296875,-2.844970703125,-4.928955078125,7.5877861976623535,-7.2366414070129395,4.595419883728027,-28.256847381591797,18.730356216430664,0.0,33.86574935913086,-34.7707633972168,23.52698516845703,-23.867223739624023,14.41812515258789,0.0
1549,-1.928955078125,-2.845703125,-4.941650390625,7.648854732513428,-7.633587837219238,4.946564674377441,-28.21091079711914,18.689022064208984,0.0,33.903995513916016,-34.808929443359375,23.55171775817871,-23.85940933227539,14.409881591796875,0.0
1554,-1.93603515625,-2.840576171875,-4.94091796875,7.389312744140625,-7.70992374420166,4.870229244232178,-28.15937042236328,18.76259994506836,0.0,33.940940856933594,-34.84748077392578,23.576068878173828,-23.852561950683594,14.401809692382812,0.0
1559,-1.934814453125,-2.8466796875,-4.94775390625,7.862595558166504,-7.282442569732666,5.2366414070129395,-28.183961868286133,18.72418785095215,0.0,33.980255126953125,-34.88389205932617,23.602252960205078,-23.84356689453125,14.395631790161133,0.0
1565,-1.931396484375,-2.84521484375,-4.940673828125,7.511450290679932,-7.679389476776123,5.053435325622559,-28.206912994384766,18.714359283447266,0.0,34.02532196044922,-34.929969787597656,23.6325740814209,-23.829143524169922,14.379898071289062,0.0
1570,-1.9296875,-2.84765625,-4.938232421875,7.557251930236816,-7.862595558166504,5.099236488342285,-28.240427017211914,18.70168685913086,0.0,34.063106536865234,-34.96928405761719,23.658069610595703,-23.822267532348633,14.37088394165039,0.0
1575,-1.933837890625,-2.848876953125,-4.945556640625,7.923664093017578,-7.404580116271973,4.27480936050415,-28.213163375854492,18.717859268188477,0.0,34.102725982666016,-35.00630569458008,23.679443359375,-23.813413619995117,14.364301681518555,0.0
1580,-1.930908203125,-2.843505859375,-4.931884765625,7.114503860473633,-7.328244209289551,5.007633686065674,-28.2302303314209,18.73584747314453,0.0,34.13829803466797,-35.042945861816406,23.70448112487793,-23.808738708496094,14.358250617980957,0.0
1585,-1.93212890625,-2.8466796875,-4.939697265625,7.557251930236816,-7.4809160232543945,4.916030406951904,-28.222089767456055,18.7213134765625,0.0,34.176082611083984,-35.08034896850586,23.729061126708984,-23.801822662353516,14.351365089416504,0.0
1590,-1.9306640625,-2.84521484375,-4.937744140625,7.450381755828857,-7.43511438369751,4.458015441894531,-28.220394134521484,18.71550941467285,0.0,34.21333312988281,-35.117523193359375,23.75135040283203,-23.795455932617188,14.344697952270508,0.0
1595,-1.931884765625,-2.844482421875,-4.9453125,7.5877861976623535,-7.282442569732666,4.931297779083252,-28.1805477142334,18.70760154724121,0.0,34.25127029418945,-35.153934478759766,23.7760066986084,-23.788158416748047,14.338762283325195,0.0
1600,-1.93505859375,-2.846923828125,-4.938720703125,7.618320465087891,-7.450381755828857,4.7633585929870605,-28.22342300415039,18.74993324279785,0.0,34.28936004638672,-35.191184997558594,23.799823760986328,-23.78104019165039,14.332310676574707,0.0
1605,-1.93115234375,-2.84228515625,-4.94091796875,7.41984748840332,-7.282442569732666,4.488549709320068,-28.18170928955078,18.715974807739258,0.0,34.32645797729492,-35.227596282958984,23.822265625,-23.77465057373047,14.326485633850098,0.0
1610,-1.93359375,-2.8427734375,-4.94287109375,7.450381755828857,-7.450381755828857,4.320610523223877,-28.17363166809082,18.732065200805664,0.0,34.36370849609375,-35.26484680175781,23.843868255615234,-23.76807975769043,14.319962501525879,0.0
1615,-1.932861328125,-2.843994140625,-4.942138671875,7.404580116271973,-7.358778476715088,4.259541988372803,-28.188135147094727,18.725543975830078,0.0,34.40073013305664,-35.301639556884766,23.86516571044922,-23.761865615844727,14.31387710571289,0.0
1620,-1.93212890625,-2.844482421875,-4.9375,7.496183395385742,-7.816793918609619,4.595419883728027,-28.21286964416504,18.730484008789062,0.0,34.438209533691406,-35.34072494506836,23.88814353942871,-23.755395889282227,14.305577278137207,0.0
1625,-1.931884765625,-2.846435546875,-4.943603515625,7.358778476715088,-7.221374034881592,4.610687255859375,-28.204076766967773,18.709148406982422,0.0,34.47500228881836,-35.3768310546875,23.911197662353516,-23.749574661254883,14.300127983093262,0.0
1630,-1.93017578125,-2.844482421875,-4.9375,7.282442569732666,-7.770992279052734,4.809160232543945,-28.21607208251953,18.712867736816406,0.0,34.51141357421875,-35.415687561035156,23.935243606567383,-23.74424171447754,14.291997909545898,0.0
1635,-1.935302734375,-2.845458984375,-4.945556640625,7.206106662750244,-7.511450290679932,5.068702220916748,-28.18212127685547,18.736257553100586,0.0,34.54744338989258,-35.453243255615234,23.960586547851562,-23.73907470703125,14.285357475280762,0.0
1640,-1.93603515625,-2.845458984375,-4.93701171875,7.603053569793701,-6.977099418640137,4.610687255859375,-28.21669578552246,18.765506744384766,0.0,34.58545684814453,-35.488128662109375,23.983640670776367,-23.732194900512695,14.28160285949707,0.0
1646,-1.92724609375,-2.845703125,-4.938720703125,7.465648651123047,-7.221374034881592,4.931297779083252,-28.225994110107422,18.681352615356445,0.0,34.62278366088867,-35.524234771728516,24.008296966552734,-23.726093292236328,14.276065826416016,0.0
1651,-1.9287109375,-2.841796875,-4.94140625,7.496183395385742,-7.496183395385742,4.4122138023376465,-28.1795597076416,18.693410873413086,0.0,34.66775894165039,-35.569210052490234,24.034770965576172,-23.712188720703125,14.26191234588623,0.0
1656,-1.92724609375,-2.848388671875,-4.943603515625,7.267175674438477,-7.358778476715088,4.870229244232178,-28.22803497314453,18.66437339782715,0.0,34.70409393310547,-35.60600280761719,24.05912208557129,-23.70728302001953,14.255767822265625,0.0
1661,-1.93359375,-2.84619140625,-4.943359375,7.755725383758545,-7.41984748840332,4.5190839767456055,-28.200254440307617,18.72556495666504,0.0,34.74287414550781,-35.64310073852539,24.08171844482422,-23.69977569580078,14.24976921081543,0.0
1666,-1.9296875,-2.84375,-4.93994140625,7.328244209289551,-6.992366313934326,4.656488418579102,-28.200489044189453,18.7031192779541,0.0,34.77951431274414,-35.678062438964844,24.10500144958496,-23.694427490234375,14.245763778686523,0.0
1671,-1.931884765625,-2.84716796875,-4.938720703125,7.877862453460693,-7.740458011627197,4.488549709320068,-28.230680465698242,18.720951080322266,0.0,34.818904876708984,-35.716766357421875,24.127443313598633,-23.686582565307617,14.238179206848145,0.0
1676,-1.927978515625,-2.84033203125,-4.939697265625,7.847328186035156,-7.465648651123047,4.5190839767456055,-28.175621032714844,18.693553924560547,0.0,34.8581428527832,-35.754093170166016,24.150039672851562,-23.678546905517578,14.231807708740234,0.0
1681,-1.927978515625,-2.843017578125,-4.937744140625,7.496183395385742,-7.557251930236816,4.748091697692871,-28.20635223388672,18.69463348388672,0.0,34.89562225341797,-35.79187774658203,24.17378044128418,-23.67250633239746,14.225016593933105,0.0
1686,-1.932861328125,-2.845703125,-4.94091796875,7.572519302368164,-7.41984748840332,4.58015251159668,-28.207584381103516,18.726173400878906,0.0,34.9334831237793,-35.828975677490234,24.19668197631836,-23.666122436523438,14.219158172607422,0.0
1691,-1.93408203125,-2.843017578125,-4.939697265625,7.755725383758545,-7.389312744140625,4.900763511657715,-28.188167572021484,18.7445068359375,0.0,34.97226333618164,-35.86592102050781,24.2211856842041,-23.65872573852539,14.213603019714355,0.0
1696,-1.931396484375,-2.843994140625,-4.947021484375,7.70992374420166,-7.450381755828857,4.748091697692871,-28.17009925842285,18.699426651000977,0.0,35.01081466674805,-35.90317153930664,24.24492645263672,-23.65146827697754,14.20745849609375,0.0
1701,-1.934326171875,-2.841064453125,-4.936279296875,7.679389476776123,-7.053435325622559,4.809160232543945,-28.185688018798828,18.758758544921875,0.0,35.04921340942383,-35.938438415527344,24.268972396850586,-23.64450454711914,14.203720092773438,0.0
1706,-1.93310546875,-2.840576171875,-4.94189453125,7.297709941864014,-7.618320465087891,4.931297779083252,-28.16008186340332,18.733600616455078,0.0,35.08570098876953,-35.97652816772461,24.293628692626953,-23.639291763305664,14.197015762329102,0.0
1711,-1.930908203125,-2.846435546875,-4.936279296875,7.648854732513428,-7.14503812789917,4.732824325561523,-28.236379623413086,18.7197265625,0.0,35.12394714355469,-36.01225280761719,24.317293167114258,-23.632883071899414,14.192597389221191,0.0
1716,-1.92724609375,-2.843994140625,-4.940673828125,7.282442569732666,-7.496183395385742,4.641221523284912,-28.203462600708008,18.67879295349121,0.0,35.16035842895508,-36.04973220825195,24.340499877929688,-23.62809944152832,14.186171531677246,0.0
1721,-1.931640625,-2.849609375,-4.94091796875,7.954198360443115,-7.312977313995361,4.778625965118408,-28.24233627319336,18.70921516418457,0.0,35.200130462646484,-36.08629608154297,24.36439323425293,-23.62026596069336,14.18089485168457,0.0
1727,-1.92724609375,-2.844970703125,-4.939697265625,7.648854732513428,-7.190839767456055,4.717557430267334,-28.21575355529785,18.679885864257812,0.0,35.23837661743164,-36.122249603271484,24.387981414794922,-23.613805770874023,14.176046371459961,0.0
1732,-1.931396484375,-2.84375,-4.941162109375,7.526717662811279,-7.679389476776123,4.58015251159668,-28.192577362060547,18.71529769897461,0.0,35.283538818359375,-36.16832733154297,24.415462493896484,-23.60043716430664,14.16149616241455,0.0
1737,-1.929931640625,-2.8486328125,-4.940673828125,7.5877861976623535,-7.3740458488464355,4.717557430267334,-28.237974166870117,18.695945739746094,0.0,35.321475982666016,-36.205196380615234,24.439050674438477,-23.594629287719727,14.156042098999023,0.0
1742,-1.929931640625,-2.843994140625,-4.93994140625,7.190839767456055,-7.70992374420166,4.656488418579102,-28.202138900756836,18.7049503326416,0.0,35.35742950439453,-36.24374771118164,24.46233367919922,-23.590572357177734,14.149005889892578,0.0
1747,-1.932861328125,-2.84423828125,-4.93994140625,7.816793918609619,-7.160305500030518,4.916030406951904,-28.199386596679688,18.730993270874023,0.0,35.396514892578125,-36.27954864501953,24.486913681030273,-23.583402633666992,14.14491081237793,0.0
1752,-1.930419921875,-2.84521484375,-4.936279296875,7.343511581420898,-7.083969593048096,4.961832046508789,-28.226938247680664,18.717185974121094,0.0,35.433231353759766,-36.31496810913086,24.511722564697266,-23.578805923461914,14.141115188598633,0.0
1757,-1.9345703125,-2.845458984375,-4.933349609375,7.496183395385742,-7.160305500030518,4.7633585929870605,-28.234458923339844,18.76201629638672,0.0,35.47071075439453,-36.35076904296875,24.535539627075195,-23.57352066040039,14.137260437011719,0.0
1762,-1.932861328125,-2.84375,-4.93798828125,7.496183395385742,-7.328244209289551,4.458015441894531,-28.203474044799805,18.736913681030273,0.0,35.5081901550293,-36.38740921020508,24.557828903198242,-23.56804656982422,14.132412910461426,0.0
1767,-1.935546875,-2.84375,-4.932861328125,7.083969593048096,-7.190839767456055,4.809160232543945,-28.22055435180664,18.774738311767578,0.0,35.543609619140625,-36.423362731933594,24.58187484741211,-23.564760208129883,14.12852668762207,0.0
1772,-1.933837890625,-2.845703125,-4.935302734375,7.603053569793701,-7.633587837219238,4.809160232543945,-28.22951889038086,18.749855041503906,0.0,35.58162307739258,-36.46152877807617,24.605920791625977,-23.55896759033203,14.122284889221191,0.0
1777,-1.927001953125,-2.84521484375,-4.94140625,7.251908302307129,-7.541984558105469,4.4122138023376465,-28.211034774780273,18.67279815673828,0.0,35.617881774902344,-36.499237060546875,24.627981185913086,-23.554819107055664,14.115999221801758,0.0
1782,-1.927490234375,-2.8408203125,-4.93994140625,7.893129825592041,-7.664122104644775,4.717557430267334,-28.179494857788086,18.687759399414062,0.0,35.6573486328125,-36.537559509277344,24.651569366455078,-23.547285079956055,14.109240531921387,0.0
1787,-1.928955078125,-2.842041015625,-4.94482421875,7.43511438369751,-7.41984748840332,4.473282337188721,-28.166898727416992,18.686201095581055,0.0,35.694522857666016,-36.57465744018555,24.673934936523438,-23.541976928710938,14.103717803955078,0.0
1792,-1.934814453125,-2.841552734375,-4.938720703125,7.496183395385742,-7.541984558105469,4.702290058135986,-28.178762435913086,18.755935668945312,0.0,35.73200225830078,-36.61236572265625,24.697446823120117,-23.53647232055664,14.098091125488281,0.0
1797,-1.92529296875,-2.84326171875,-4.939453125,7.5877861976623535,-7.70992374420166,4.6259541511535645,-28.20562744140625,18.665512084960938,0.0,35.76993942260742,-36.650917053222656,24.720577239990234,-23.53072166442871,14.091038703918457,0.0
1802,-1.931884765625,-2.8466796875,-4.93798828125,7.450381755828857,-7.389312744140625,4.27480936050415,-28.229656219482422,18.723634719848633,0.0,35.80718994140625,-36.687862396240234,24.74195098876953,-23.52584457397461,14.08601188659668,0.0
1808,-1.932861328125,-2.844970703125,-4.945556640625,7.267175674438477,-7.175572395324707,4.748091697692871,-28.182022094726562,18.715011596679688,0.0,35.84352493286133,-36.72373962402344,24.76569175720215,-23.521574020385742,14.082009315490723,0.0
1813,-1.9306640625,-2.84033203125,-4.94921875,7.3740458488464355,-7.618320465087891,4.946564674377441,-28.13140106201172,18.692581176757812,0.0,35.88776779174805,-36.76945114135742,24.795372009277344,-23.50920867919922,14.068194389343262,0.0
1818,-1.935546875,-2.843505859375,-4.94677734375,7.312977313995361,-7.465648651123047,4.870229244232178,-28.16024398803711,18.738197326660156,0.0,35.92433166503906,-36.80677795410156,24.81972312927246,-23.50473976135254,14.063097953796387,0.0
1823,-1.93017578125,-2.845458984375,-4.938720703125,7.4809160232543945,-7.648854732513428,4.793893337249756,-28.219146728515625,18.708148956298828,0.0,35.961734771728516,-36.84502410888672,24.843692779541016,-23.49985694885254,14.056907653808594,0.0
1828,-1.933837890625,-2.843017578125,-4.93896484375,7.43511438369751,-7.633587837219238,4.595419883728027,-28.191635131835938,18.744247436523438,0.0,35.99890899658203,-36.8831901550293,24.866670608520508,-23.49503517150879,14.051070213317871,0.0
1833,-1.930908203125,-2.844482421875,-4.941162109375,6.900763511657715,-7.557251930236816,4.503816604614258,-28.19952392578125,18.709779739379883,0.0,36.03341293334961,-36.92097473144531,24.889188766479492,-23.49294090270996,14.045402526855469,0.0
1838,-1.930419921875,-2.845947265625,-4.9375,7.358778476715088,-7.282442569732666,4.381679534912109,-28.227962493896484,18.71283531188965,0.0,36.07020568847656,-36.9573860168457,24.911096572875977,-23.488767623901367,14.041147232055664,0.0
1843,-1.931884765625,-2.844482421875,-4.949462890625,7.328244209289551,-7.43511438369751,4.717557430267334,-28.163190841674805,18.696630477905273,0.0,36.10684585571289,-36.99456024169922,24.93468475341797,-23.48431968688965,14.036040306091309,0.0
1848,-1.93017578125,-2.84912109375,-4.947021484375,7.496183395385742,-7.389312744140625,4.641221523284912,-28.215063095092773,18.680639266967773,0.0,36.144325256347656,-37.0315055847168,24.9578914642334,-23.479412078857422,14.031074523925781,0.0
1853,-1.93017578125,-2.843017578125,-4.93701171875,7.343511581420898,-7.496183395385742,4.503816604614258,-28.20582389831543,18.71639633178711,0.0,36.1810417175293,-37.06898498535156,24.980409622192383,-23.4752197265625,14.025843620300293,0.0
1858,-1.9306640625,-2.84619140625,-4.93359375,7.450381755828857,-7.41984748840332,4.778625965118408,-28.246002197265625,18.725008010864258,0.0,36.218292236328125,-37.106082916259766,25.004302978515625,-23.470788955688477,14.021076202392578,0.0
1863,-1.93359375,-2.84228515625,-4.9345703125,7.389312744140625,-7.267175674438477,4.610687255859375,-28.204301834106445,18.75482177734375,0.0,36.2552375793457,-37.142417907714844,25.02735710144043,-23.466394424438477,14.017290115356445,0.0
1868,-1.934814453125,-2.83984375,-4.93798828125,7.526717662811279,-7.4809160232543945,4.748091697692871,-28.167482376098633,18.760488510131836,0.0,36.292869567871094,-37.1798210144043,25.051097869873047,-23.46108627319336,14.012495994567871,0.0
1873,-1.9306640625,-2.844482421875,-4.940185546875,7.496183395385742,-7.770992279052734,4.900763511657715,-28.20401382446289,18.710163116455078,0.0,36.33034896850586,-37.21867752075195,25.07560157775879,-23.45620346069336,14.005940437316895,0.0
1878,-1.929931640625,-2.845703125,-4.9384765625,7.43511438369751,-7.2366414070129395,4.595419883728027,-28.222618103027344,18.706220626831055,0.0,36.367523193359375,-37.254859924316406,25.09857940673828,-23.451772689819336,14.002043724060059,0.0
1883,-1.933349609375,-2.845947265625,-4.939208984375,7.404580116271973,-7.618320465087891,4.793893337249756,-28.215991973876953,18.73472785949707,0.0,36.404544830322266,-37.29294967651367,25.122549057006836,-23.447465896606445,13.996461868286133,0.0
1888,-1.93212890625,-2.84619140625,-4.94775390625,7.8015265464782715,-7.343511581420898,4.717557430267334,-28.18425941467285,18.700748443603516,0.0,36.44355392456055,-37.32966613769531,25.146137237548828,-23.44099235534668,13.992040634155273,0.0
1894,-1.93359375,-2.84228515625,-4.93896484375,7.633587837219238,-7.893129825592041,4.56488561630249,-28.185888290405273,18.7431640625,0.0,36.489356994628906,-37.37702560424805,25.173526763916016,-23.427907943725586,13.97745132446289,0.0
1899,-1.9326171875,-2.8447265625,-4.940673828125,7.679389476776123,-7.083969593048096,4.656488418579102,-28.200817108154297,18.726106643676758,0.0,36.52775573730469,-37.412445068359375,25.196809768676758,-23.42235565185547,13.974691390991211,0.0
1904,-1.92919921875,-2.84716796875,-4.944580078125,7.755725383758545,-7.603053569793701,4.442748069763184,-28.21051788330078,18.681255340576172,0.0,36.56653594970703,-37.45045852661133,25.219022750854492,-23.41651725769043,13.969054222106934,0.0
1909,-1.92822265625,-2.8466796875,-4.932861328125,7.70992374420166,-7.114503860473633,4.488549709320068,-28.257186889648438,18.704172134399414,0.0,36.60508728027344,-37.48603057861328,25.241464614868164,-23.411252975463867,13.96602725982666,0.0
1914,-1.933349609375,-2.84521484375,-4.947021484375,7.465648651123047,-7.328244209289551,4.946564674377441,-28.177143096923828,18.715164184570312,0.0,36.64241409301758,-37.52267074584961,25.266197204589844,-23.406679153442383,13.96202278137207,0.0
1919,-1.9296875,-2.845703125,-4.93798828125,7.511450290679932,-7.450381755828857,4.977099418640137,-28.225067138671875,18.705310821533203,0.0,36.679969787597656,-37.55992126464844,25.29108238220215,-23.402225494384766,13.95736026763916,0.0
1924,-1.930419921875,-2.8486328125,-4.94189453125,7.41984748840332,-7.053435325622559,4.549618244171143,-28.232053756713867,18.697118759155273,0.0,36.71706771850586,-37.59518814086914,25.313831329345703,-23.398292541503906,13.954633712768555,0.0
1929,-1.93115234375,-2.85009765625,-4.946044921875,7.618320465087891,-7.572519302368164,4.946564674377441,-28.225738525390625,18.690526962280273,0.0,36.755157470703125,-37.63304901123047,25.338563919067383,-23.393346786499023,13.949292182922363,0.0
1934,-1.932373046875,-2.84423828125,-4.937255859375,7.358778476715088,-7.72519063949585,4.7633585929870605,-28.211441040039062,18.733705520629883,0.0,36.79195022583008,-37.67167663574219,25.362380981445312,-23.389616012573242,13.943512916564941,0.0
1939,-1.932861328125,-2.843994140625,-4.942138671875,7.43511438369751,-7.618320465087891,4.793893337249756,-28.188135147094727,18.725543975830078,0.0,36.829124450683594,-37.70976638793945,25.386350631713867,-23.385360717773438,13.938237190246582,0.0
1944,-1.927978515625,-2.84619140625,-4.943603515625,7.358778476715088,-7.404580116271973,4.534351348876953,-28.208417892456055,18.674314498901367,0.0,36.86591720581055,-37.746788024902344,25.40902328491211,-23.381641387939453,13.933699607849121,0.0
1949,-1.934814453125,-2.841552734375,-4.943359375,7.648854732513428,-7.343511581420898,4.732824325561523,-28.159351348876953,18.74363136291504,0.0,36.9041633605957,-37.783504486083984,25.432687759399414,-23.376163482666016,13.929957389831543,0.0
1954,-1.931640625,-2.844970703125,-4.943115234375,7.786259651184082,-7.2366414070129395,4.4122138023376465,-28.194236755371094,18.71047019958496,0.0,36.94309616088867,-37.81968688964844,25.454748153686523,-23.370267868041992,13.926534652709961,0.0
1959,-1.927490234375,-2.84765625,-4.94140625,7.5877861976623535,-7.14503812789917,4.473282337188721,-28.230710983276367,18.673486709594727,0.0,36.98103332519531,-37.855411529541016,25.477113723754883,-23.36563491821289,13.923328399658203,0.0
1964,-1.931884765625,-2.84521484375,-4.93505859375,7.465648651123047,-6.992366313934326,4.946564674377441,-28.22965431213379,18.733633041381836,0.0,37.01836013793945,-37.89037322998047,25.501846313476562,-23.361621856689453,13.92130184173584,0.0
1969,-1.93505859375,-2.843017578125,-4.94189453125,7.72519063949585,-7.511450290679932,4.870229244232178,-28.1773681640625,18.747482299804688,0.0,37.05698776245117,-37.92792892456055,25.52619743347168,-23.35598373413086,13.916794776916504,0.0
1975,-1.9326171875,-2.849365234375,-4.93798828125,7.404580116271973,-7.450381755828857,4.85496187210083,-28.250974655151367,18.726139068603516,0.0,37.10141372680664,-37.97262954711914,25.555326461791992,-23.345205307006836,13.905160903930664,0.0
1980,-1.929931640625,-2.843994140625,-4.935791015625,7.72519063949585,-7.633587837219238,5.022900581359863,-28.219539642333984,18.7159366607666,0.0,37.14004135131836,-38.01079559326172,25.580440521240234,-23.340038299560547,13.900015830993652,0.0
1985,-1.931640625,-2.84716796875,-4.940673828125,7.358778476715088,-7.877862453460693,4.931297779083252,-28.22289276123047,18.71358299255371,0.0,37.17683410644531,-38.05018615722656,25.6050968170166,-23.33673667907715,13.893665313720703,0.0
1990,-1.931640625,-2.847900390625,-4.93701171875,7.526717662811279,-7.603053569793701,5.14503812789917,-28.2443904876709,18.72215461730957,0.0,37.2144660949707,-38.088199615478516,25.630821228027344,-23.332759857177734,13.888771057128906,0.0
1995,-1.933837890625,-2.8447265625,-4.93310546875,7.389312744140625,-7.832061290740967,4.5190839767456055,-28.230541229248047,18.757177352905273,0.0,37.25141143798828,-38.12736129760742,25.653417587280273,-23.329387664794922,13.883000373840332,0.0
2000,-1.933837890625,-2.84619140625,-4.9365234375,7.572519302368164,-7.618320465087891,4.916030406951904,-28.228496551513672,18.745872497558594,0.0,37.28927230834961,-38.16545104980469,25.677997589111328,-23.325103759765625,13.878243446350098,0.0
2005,-1.935791015625,-2.845703125,-4.9404296875,7.70992374420166,-7.450381755828857,4.671755790710449,-28.20482635498047,18.753868103027344,0.0,37.327823638916016,-38.202701568603516,25.701356887817383,-23.319995880126953,13.874397277832031,0.0
2010,-1.935791015625,-2.84619140625,-4.941650390625,7.572519302368164,-7.160305500030518,4.396946430206299,-28.203807830810547,18.74988555908203,0.0,37.365684509277344,-38.238502502441406,25.72334098815918,-23.315587997436523,13.871979713439941,0.0
2015,-1.93310546875,-2.842529296875,-4.93798828125,7.572519302368164,-7.206106662750244,4.656488418579102,-28.192829132080078,18.740978240966797,0.0,37.40354537963867,-38.274532318115234,25.746623992919922,-23.311124801635742,13.869280815124512,0.0
2020,-1.9306640625,-2.84326171875,-4.936279296875,7.786259651184082,-6.885496139526367,4.732824325561523,-28.21014404296875,18.722368240356445,0.0,37.44247817993164,-38.3089599609375,25.770288467407227,-23.30573844909668,13.86805534362793,0.0
2025,-1.929931640625,-2.846923828125,-4.939453125,7.4809160232543945,-7.389312744140625,4.7633585929870605,-28.228763580322266,18.7017765045166,0.0,37.479881286621094,-38.34590530395508,25.794105529785156,-23.302021026611328,13.864187240600586,0.0
2030,-1.93212890625,-2.846923828125,-4.93701171875,7.770992279052734,-7.832061290740967,4.534351348876953,-28.23539924621582,18.728050231933594,0.0,37.51873779296875,-38.385066986083984,25.8167781829834,-23.296924591064453,13.858315467834473,0.0
2035,-1.9287109375,-2.845947265625,-4.93994140625,7.389312744140625,-7.129770755767822,4.992366313934326,-28.220523834228516,18.690967559814453,0.0,37.55568313598633,-38.42071533203125,25.841739654541016,-23.29364776611328,13.855709075927734,0.0
2040,-1.933349609375,-2.84814453125,-4.942626953125,7.603053569793701,-7.72519063949585,4.503816604614258,-28.2200927734375,18.722326278686523,0.0,37.59369659423828,-38.45934295654297,25.8642578125,-23.289318084716797,13.85036849975586,0.0
2045,-1.93212890625,-2.846435546875,-4.938232421875,7.450381755828857,-7.6946563720703125,4.687022686004639,-28.22618293762207,18.725563049316406,0.0,37.63094711303711,-38.49781799316406,25.887693405151367,-23.285808563232422,13.84522819519043,0.0
2050,-1.933349609375,-2.842041015625,-4.942626953125,7.4809160232543945,-7.648854732513428,4.900763511657715,-28.168909072875977,18.73162841796875,0.0,37.66835021972656,-38.53606414794922,25.91219711303711,-23.28177261352539,13.840381622314453,0.0
2056,-1.931640625,-2.84423828125,-4.94091796875,7.2366414070129395,-7.221374034881592,4.473282337188721,-28.197296142578125,18.7174015045166,0.0,37.711769104003906,-38.57939147949219,25.939037322998047,-23.27206802368164,13.8305082321167,0.0
2061,-1.9306640625,-2.844482421875,-4.939208984375,7.541984558105469,-7.14503812789917,4.7633585929870605,-28.208106994628906,18.71274757385254,0.0,37.74947738647461,-38.615116119384766,25.962854385375977,-23.268165588378906,13.828210830688477,0.0
2066,-1.935791015625,-2.84228515625,-4.940185546875,7.526717662811279,-7.007633686065674,4.5190839767456055,-28.177175521850586,18.759733200073242,0.0,37.787109375,-38.65015411376953,25.985450744628906,-23.264144897460938,13.826921463012695,0.0
2071,-1.93212890625,-2.84716796875,-4.93798828125,7.526717662811279,-7.114503860473633,4.503816604614258,-28.23335075378418,18.7250919342041,0.0,37.82474136352539,-38.685726165771484,26.00796890258789,-23.260522842407227,13.824864387512207,0.0
2076,-1.929443359375,-2.844482421875,-4.940185546875,7.450381755828857,-7.679389476776123,4.610687255859375,-28.206012725830078,18.699155807495117,0.0,37.86199188232422,-38.724124908447266,26.031023025512695,-23.257108688354492,13.819829940795898,0.0
2081,-1.93017578125,-2.845703125,-4.939453125,7.43511438369751,-7.358778476715088,4.27480936050415,-28.218124389648438,18.705839157104492,0.0,37.899166107177734,-38.76091766357422,26.052396774291992,-23.25386619567871,13.816457748413086,0.0
2086,-1.927490234375,-2.84326171875,-4.93603515625,7.41984748840332,-7.389312744140625,4.610687255859375,-28.21636962890625,18.69437599182129,0.0,37.93626403808594,-38.7978630065918,26.075450897216797,-23.250699996948242,13.812870025634766,0.0
2091,-1.929931640625,-2.8447265625,-4.94091796875,7.541984558105469,-7.43511438369751,4.809160232543945,-28.204193115234375,18.701250076293945,0.0,37.97397232055664,-38.83503723144531,26.099496841430664,-23.246856689453125,13.80911636352539,0.0
2096,-1.93115234375,-2.846435546875,-4.9375,7.450381755828857,-7.572519302368164,4.885496139526367,-28.230857849121094,18.71869659423828,0.0,38.01122283935547,-38.87289810180664,26.123924255371094,-23.24366569519043,13.804814338684082,0.0
2101,-1.9306640625,-2.84375,-4.9443359375,7.5877861976623535,-7.4809160232543945,4.488549709320068,-28.180484771728516,18.700298309326172,0.0,38.04916000366211,-38.910301208496094,26.146366119384766,-23.239463806152344,13.800862312316895,0.0
2106,-1.930908203125,-2.84716796875,-4.938232421875,7.404580116271973,-7.4809160232543945,4.656488418579102,-28.234329223632812,18.713438034057617,0.0,38.086181640625,-38.94770431518555,26.169649124145508,-23.236555099487305,13.797017097473145,0.0
2111,-1.933349609375,-2.846923828125,-4.93896484375,7.70992374420166,-6.992366313934326,4.503816604614258,-28.22520637512207,18.733882904052734,0.0,38.124732971191406,-38.982666015625,26.192167282104492,-23.232080459594727,13.795754432678223,0.0
2116,-1.93017578125,-2.84375,-4.942138671875,7.526717662811279,-7.083969593048096,4.885496139526367,-28.19048309326172,18.70170783996582,0.0,38.1623649597168,-39.01808547973633,26.216594696044922,-23.228300094604492,13.793818473815918,0.0
2121,-1.932373046875,-2.845947265625,-4.943115234375,7.450381755828857,-7.343511581420898,4.610687255859375,-28.20122718811035,18.71558380126953,0.0,38.199615478515625,-39.05480194091797,26.239648818969727,-23.22498893737793,13.790691375732422,0.0
2126,-1.928466796875,-2.84716796875,-4.93798828125,7.603053569793701,-7.190839767456055,4.549618244171143,-28.239356994628906,18.692068099975586,0.0,38.23762893676758,-39.090755462646484,26.26239776611328,-23.22119140625,13.788175582885742,0.0
2131,-1.93115234375,-2.84423828125,-4.944091796875,7.41984748840332,-7.679389476776123,5.14503812789917,-28.184803009033203,18.704601287841797,0.0,38.27472686767578,-39.129154205322266,26.288122177124023,-23.21795082092285,13.783327102661133,0.0
2137,-1.927734375,-2.84619140625,-4.9423828125,7.572519302368164,-7.679389476776123,4.977099418640137,-28.213932037353516,18.675336837768555,0.0,38.32016372680664,-39.17523193359375,26.31798553466797,-23.20673942565918,13.770772933959961,0.0
2142,-1.933837890625,-2.84423828125,-4.9453125,7.297709941864014,-7.816793918609619,4.687022686004639,-28.175304412841797,18.725568771362305,0.0,38.356651306152344,-39.214317321777344,26.341421127319336,-23.2042179107666,13.765580177307129,0.0
2147,-1.9267578125,-2.84423828125,-4.942138671875,7.465648651123047,-7.603053569793701,4.488549709320068,-28.200166702270508,18.670146942138672,0.0,38.393978118896484,-39.2523307800293,26.363862991333008,-23.201038360595703,13.761098861694336,0.0
2152,-1.9345703125,-2.8447265625,-4.943603515625,7.8015265464782715,-7.664122104644775,4.900763511657715,-28.18535041809082,18.73594856262207,0.0,38.432987213134766,-39.290653228759766,26.38836669921875,-23.196104049682617,13.756781578063965,0.0
2157,-1.935302734375,-2.844482421875,-4.939208984375,7.6946563720703125,-7.312977313995361,4.793893337249756,-28.20050048828125,18.754568099975586,0.0,38.47146224975586,-39.32721710205078,26.412336349487305,-23.19182586669922,13.754354476928711,0.0
2162,-1.927978515625,-2.8466796875,-4.936767578125,7.175572395324707,-7.312977313995361,4.503816604614258,-28.24118423461914,18.691633224487305,0.0,38.50733947753906,-39.3637809753418,26.43485450744629,-23.19042205810547,13.751507759094238,0.0
2167,-1.927978515625,-2.840576171875,-4.936279296875,7.8015265464782715,-6.992366313934326,4.549618244171143,-28.19199562072754,18.70223045349121,0.0,38.546348571777344,-39.39874267578125,26.457603454589844,-23.185577392578125,13.750335693359375,0.0
2172,-1.93701171875,-2.844970703125,-4.938720703125,7.832061290740967,-7.496183395385742,4.427480697631836,-28.20383644104004,18.770519256591797,0.0,38.58551025390625,-39.436222076416016,26.479740142822266,-23.18068504333496,13.747122764587402,0.0
2177,-1.932861328125,-2.844970703125,-4.944580078125,7.496183395385742,-7.068702220916748,4.213740348815918,-28.18610954284668,18.717594146728516,0.0,38.622989654541016,-39.47156524658203,26.500808715820312,-23.177364349365234,13.745688438415527,0.0
2182,-1.9306640625,-2.842529296875,-4.937255859375,7.450381755828857,-7.297709941864014,4.534351348876953,-28.199901580810547,18.72089958190918,0.0,38.660240173339844,-39.508052825927734,26.523481369018555,-23.17437744140625,13.743139266967773,0.0
2187,-1.927734375,-2.843505859375,-4.938232421875,7.572519302368164,-7.511450290679932,4.6259541511535645,-28.208803176879883,18.69039535522461,0.0,38.69810104370117,-39.54560852050781,26.546611785888672,-23.170856475830078,13.739330291748047,0.0
2192,-1.929931640625,-2.848876953125,-4.93359375,7.740458011627197,-7.603053569793701,5.038167953491211,-28.26974105834961,18.714296340942383,0.0,38.7368049621582,-39.583621978759766,26.571802139282227,-23.166929244995117,13.735246658325195,0.0
2197,-1.932861328125,-2.84814453125,-4.93896484375,7.526717662811279,-7.572519302368164,4.473282337188721,-28.236242294311523,18.727619171142578,0.0,38.774436950683594,-39.621482849121094,26.594167709350586,-23.163854598999023,13.731423377990723,0.0
2202,-1.930419921875,-2.847900390625,-4.948486328125,7.633587837219238,-7.6946563720703125,4.335877895355225,-28.198307037353516,18.68082618713379,0.0,38.81260299682617,-39.65995788574219,26.615846633911133,-23.160005569458008,13.72669506072998,0.0
2207,-1.93212890625,-2.845703125,-4.93603515625,7.511450290679932,-7.068702220916748,4.641221523284912,-28.2292537689209,18.732501983642578,0.0,38.85015869140625,-39.6953010559082,26.639053344726562,-23.15699005126953,13.725449562072754,0.0
2212,-1.93115234375,-2.846923828125,-4.945068359375,7.251908302307129,-7.404580116271973,4.702290058135986,-28.20323371887207,18.697933197021484,0.0,38.886417388916016,-39.732322692871094,26.662565231323242,-23.155099868774414,13.722302436828613,0.0
2218,-1.9296875,-2.8427734375,-4.937255859375,7.5877861976623535,-7.312977313995361,4.549618244171143,-28.203550338745117,18.71171760559082,0.0,38.924354553222656,-39.76888656616211,26.685314178466797,-23.151548385620117,13.71971607208252,0.0
2223,-1.931640625,-2.8466796875,-4.938232421875,7.41984748840332,-7.129770755767822,4.916030406951904,-28.229032516479492,18.720787048339844,0.0,38.9688720703125,-39.81166458129883,26.71480941772461,-23.141748428344727,13.711126327514648,0.0
2228,-1.935302734375,-2.84765625,-4.9423828125,7.43511438369751,-7.41984748840332,4.473282337188721,-28.213821411132812,18.74131202697754,0.0,39.006046295166016,-39.84876251220703,26.73717498779297,-23.13919448852539,13.708366394042969,0.0
2233,-1.931396484375,-2.843994140625,-4.939453125,7.4809160232543945,-7.4809160232543945,4.671755790710449,-28.201786041259766,18.719449996948242,0.0,39.04344940185547,-39.886165618896484,26.760534286499023,-23.136341094970703,13.705163955688477,0.0
2238,-1.9306640625,-2.846923828125,-4.935546875,7.3740458488464355,-7.633587837219238,4.351145267486572,-28.24394989013672,18.718717575073242,0.0,39.080318450927734,-39.92433166503906,26.782289505004883,-23.134313583374023,13.701211929321289,0.0
2243,-1.930419921875,-2.844970703125,-4.9375,7.343511581420898,-7.816793918609619,4.427480697631836,-28.219768524169922,18.714324951171875,0.0,39.117034912109375,-39.963417053222656,26.804426193237305,-23.132278442382812,13.696337699890137,0.0
2248,-1.93310546875,-2.84912109375,-4.943603515625,7.557251930236816,-7.511450290679932,4.503816604614258,-28.224586486816406,18.716054916381836,0.0,39.15481948852539,-40.000972747802734,26.82694435119629,-23.129220962524414,13.693016052246094,0.0
2253,-1.931640625,-2.843505859375,-4.9453125,7.6946563720703125,-7.679389476776123,4.748091697692871,-28.17275619506836,18.706886291503906,0.0,39.193294525146484,-40.039371490478516,26.850685119628906,-23.12514305114746,13.688813209533691,0.0
2258,-1.932373046875,-2.844482421875,-4.938232421875,7.511450290679932,-6.992366313934326,4.503816604614258,-28.20939826965332,18.730745315551758,0.0,39.23085021972656,-40.07433319091797,26.87320327758789,-23.122241973876953,13.688203811645508,0.0
2263,-1.932373046875,-2.845703125,-4.943603515625,7.603053569793701,-6.992366313934326,4.656488418579102,-28.19713592529297,18.714664459228516,0.0,39.268863677978516,-40.10929489135742,26.896486282348633,-23.11881446838379,13.687480926513672,0.0
2268,-1.9345703125,-2.845458984375,-4.9453125,7.2366414070129395,-7.160305500030518,4.458015441894531,-28.184341430664062,18.73030662536621,0.0,39.30504608154297,-40.14509582519531,26.91877555847168,-23.117136001586914,13.686026573181152,0.0
2273,-1.9306640625,-2.841552734375,-4.935546875,7.541984558105469,-7.328244209289551,4.381679534912109,-28.19886589050293,18.726917266845703,0.0,39.34275436401367,-40.18173599243164,26.940683364868164,-23.11404037475586,13.683716773986816,0.0
2278,-1.934814453125,-2.845703125,-4.93701171875,7.633587837219238,-7.404580116271973,4.6259541511535645,-28.220748901367188,18.754127502441406,0.0,39.38092041015625,-40.21875762939453,26.96381378173828,-23.11065101623535,13.681220054626465,0.0
2283,-1.934814453125,-2.843017578125,-4.938232421875,7.541984558105469,-7.282442569732666,4.671755790710449,-28.193099975585938,18.754993438720703,0.0,39.41862869262695,-40.25516891479492,26.987173080444336,-23.1075439453125,13.679344177246094,0.0
2288,-1.92724609375,-2.843994140625,-4.948974609375,7.358778476715088,-7.251908302307129,4.793893337249756,-28.168699264526367,18.656875610351562,0.0,39.455421447753906,-40.29142761230469,27.01114273071289,-23.105195999145508,13.676961898803711,0.0
2293,-1.932861328125,-2.84912109375,-4.933349609375,7.160305500030518,-7.847328186035156,4.931297779083252,-28.267995834350586,18.740997314453125,0.0,39.4912223815918,-40.330665588378906,27.035799026489258,-23.10451316833496,13.672199249267578,0.0
2299,-1.931640625,-2.845458984375,-4.939208984375,7.511450290679932,-7.557251930236816,4.58015251159668,-28.214698791503906,18.720064163208008,0.0,39.528778076171875,-40.36845016479492,27.058700561523438,-23.101722717285156,13.668760299682617,0.0
2304,-1.932861328125,-2.845947265625,-4.94140625,7.618320465087891,-7.618320465087891,4.824427604675293,-28.20758628845215,18.72450828552246,0.0,39.57448959350586,-40.414161682128906,27.087646484375,-23.090898513793945,13.657596588134766,0.0
2309,-1.93310546875,-2.844482421875,-4.951416015625,7.328244209289551,-7.893129825592041,4.442748069763184,-28.153038024902344,18.70246124267578,0.0,39.61112976074219,-40.45362854003906,27.109859466552734,-23.088775634765625,13.652551651000977,0.0
2314,-1.932861328125,-2.84716796875,-4.9423828125,7.43511438369751,-7.389312744140625,4.961832046508789,-28.213729858398438,18.720062255859375,0.0,39.6483039855957,-40.49057388305664,27.134668350219727,-23.086538314819336,13.650154113769531,0.0
2319,-1.93115234375,-2.84326171875,-4.94140625,7.465648651123047,-7.083969593048096,4.870229244232178,-28.18785858154297,18.71319580078125,0.0,39.685630798339844,-40.52599334716797,27.159019470214844,-23.083980560302734,13.649234771728516,0.0
2324,-1.930419921875,-2.84521484375,-4.93798828125,7.43511438369751,-7.2366414070129395,4.473282337188721,-28.219770431518555,18.712661743164062,0.0,39.72280502319336,-40.56217575073242,27.181385040283203,-23.08180046081543,13.647550582885742,0.0
2329,-1.929931640625,-2.8486328125,-4.946533203125,7.770992279052734,-7.541984558105469,4.351145267486572,-28.213417053222656,18.680471420288086,0.0,39.761661529541016,-40.599884033203125,27.203140258789062,-23.07791519165039,13.644135475158691,0.0
2334,-1.929443359375,-2.84228515625,-4.93994140625,7.221374034881592,-7.3740458488464355,4.946564674377441,-28.188596725463867,18.703149795532227,0.0,39.797767639160156,-40.63675308227539,27.227872848510742,-23.076610565185547,13.641722679138184,0.0
2339,-1.931640625,-2.84423828125,-4.934326171875,7.312977313995361,-7.786259651184082,4.778625965118408,-28.224929809570312,18.73486328125,0.0,39.83433151245117,-40.67568588256836,27.251766204833984,-23.075096130371094,13.637486457824707,0.0
2344,-1.93408203125,-2.844482421875,-4.94091796875,7.572519302368164,-7.618320465087891,4.58015251159668,-28.19534683227539,18.739036560058594,0.0,39.8721923828125,-40.713775634765625,27.274667739868164,-23.07209587097168,13.634132385253906,0.0
2349,-1.93505859375,-2.845703125,-4.944091796875,7.282442569732666,-7.70992374420166,4.488549709320068,-28.190696716308594,18.737564086914062,0.0,39.90860366821289,-40.75232696533203,27.297109603881836,-23.070518493652344,13.630328178405762,0.0
2354,-1.931396484375,-2.844970703125,-4.9462890625,7.618320465087891,-7.541984558105469,4.7633585929870605,-28.181352615356445,18.69987678527832,0.0,39.946693420410156,-40.790035247802734,27.320926666259766,-23.067211151123047,13.627120971679688,0.0
2359,-1.93603515625,-2.84765625,-4.943603515625,7.786259651184082,-7.282442569732666,4.656488418579102,-28.207509994506836,18.74467658996582,0.0,39.985626220703125,-40.826446533203125,27.344209671020508,-23.063261032104492,13.625519752502441,0.0
2364,-1.934814453125,-2.842529296875,-4.941162109375,7.251908302307129,-7.14503812789917,5.022900581359863,-28.176738739013672,18.747968673706055,0.0,40.02188491821289,-40.8621711730957,27.36932373046875,-23.061777114868164,13.624626159667969,0.0
2369,-1.931396484375,-2.84033203125,-4.9423828125,7.618320465087891,-7.297709941864014,4.656488418579102,-28.158784866333008,18.717269897460938,0.0,40.059974670410156,-40.898658752441406,27.392606735229492,-23.058353424072266,13.62276554107666,0.0
2374,-1.931640625,-2.84521484375,-4.941162109375,7.5877861976623535,-7.389312744140625,4.167938709259033,-28.2044677734375,18.715267181396484,0.0,40.0979118347168,-40.935604095458984,27.4134464263916,-23.05540657043457,13.620442390441895,0.0
2380,-1.9326171875,-2.845947265625,-4.9423828125,7.343511581420898,-7.297709941864014,4.503816604614258,-28.203895568847656,18.719722747802734,0.0,40.13462829589844,-40.97209167480469,27.435964584350586,-23.053680419921875,13.618612289428711,0.0
2385,-1.932861328125,-2.847900390625,-4.9443359375,7.358778476715088,-6.992366313934326,4.809160232543945,-28.211688995361328,18.71377944946289,0.0,40.17877960205078,-41.01404571533203,27.464818954467773,-23.044727325439453,13.611417770385742,0.0
2390,-1.9365234375,-2.8408203125,-4.9365234375,7.9083967208862305,-7.2366414070129395,4.58015251159668,-28.17900848388672,18.77829933166504,0.0,40.21832275390625,-41.050228118896484,27.487720489501953,-23.040185928344727,13.610431671142578,0.0
2395,-1.93017578125,-2.847412109375,-4.94140625,7.43511438369751,-7.496183395385742,4.6259541511535645,-28.224267959594727,18.698070526123047,0.0,40.255496978759766,-41.08770751953125,27.51085090637207,-23.03832244873047,13.607612609863281,0.0
2400,-1.93212890625,-2.84423828125,-4.94384765625,7.312977313995361,-7.877862453460693,4.381679534912109,-28.184228897094727,18.714048385620117,0.0,40.29206085205078,-41.127098083496094,27.532758712768555,-23.03679847717285,13.60301685333252,0.0
2405,-1.93017578125,-2.843017578125,-4.9482421875,7.740458011627197,-7.770992279052734,4.778625965118408,-28.15880012512207,18.686687469482422,0.0,40.33076477050781,-41.16595458984375,27.556652069091797,-23.032981872558594,13.598790168762207,0.0
2410,-1.9287109375,-2.8505859375,-4.940673828125,7.465648651123047,-7.496183395385742,4.549618244171143,-28.256345748901367,18.68196678161621,0.0,40.36809158325195,-41.203433990478516,27.57940101623535,-23.031208038330078,13.595916748046875,0.0
2415,-1.93017578125,-2.84423828125,-4.937744140625,7.70992374420166,-7.2366414070129395,4.687022686004639,-28.212997436523438,18.712594985961914,0.0,40.40664291381836,-41.23961639404297,27.60283660888672,-23.027931213378906,13.594551086425781,0.0
2420,-1.932373046875,-2.84814453125,-4.943115234375,7.297709941864014,-7.343511581420898,4.748091697692871,-28.219646453857422,18.712236404418945,0.0,40.44313049316406,-41.27633285522461,27.626577377319336,-23.02676010131836,13.59265422821045,0.0
2425,-1.9326171875,-2.842529296875,-4.93359375,7.251908302307129,-7.328244209289551,4.687022686004639,-28.212051391601562,18.74822998046875,0.0,40.47938919067383,-41.31297302246094,27.650012969970703,-23.025768280029297,13.591080665588379,0.0
2430,-1.931640625,-2.845458984375,-4.93994140625,7.511450290679932,-7.083969593048096,4.916030406951904,-28.21162986755371,18.71812629699707,0.0,40.516944885253906,-41.348392486572266,27.674592971801758,-23.023481369018555,13.590520858764648,0.0
2435,-1.93701171875,-2.84228515625,-4.9404296875,7.312977313995361,-7.603053569793701,4.778625965118408,-28.174152374267578,18.77008819580078,0.0,40.55350875854492,-41.38640594482422,27.698486328125,-23.021934509277344,13.587729454040527,0.0
2440,-1.928466796875,-2.847412109375,-4.935302734375,7.389312744140625,-7.664122104644775,4.732824325561523,-28.25267791748047,18.69879722595215,0.0,40.5904541015625,-41.42472839355469,27.722150802612305,-23.02054214477539,13.584165573120117,0.0
2445,-1.934326171875,-2.84716796875,-4.932861328125,7.72519063949585,-7.770992279052734,4.442748069763184,-28.251249313354492,18.758493423461914,0.0,40.62908172607422,-41.463584899902344,27.74436378479004,-23.017475128173828,13.580491065979004,0.0
2450,-1.934326171875,-2.845947265625,-4.943603515625,7.618320465087891,-7.954198360443115,4.824427604675293,-28.195985794067383,18.731887817382812,0.0,40.667171478271484,-41.50335693359375,27.76848602294922,-23.01457977294922,13.575743675231934,0.0
2455,-1.927490234375,-2.84619140625,-4.93896484375,7.312977313995361,-7.603053569793701,4.641221523284912,-28.228666305541992,18.682165145874023,0.0,40.7037353515625,-41.5413703918457,27.79169273376465,-23.013431549072266,13.572429656982422,0.0
2461,-1.931884765625,-2.84423828125,-4.942626953125,7.770992279052734,-7.557251930236816,4.641221523284912,-28.18973731994629,18.715078353881836,0.0,40.742591857910156,-41.57915496826172,27.814899444580078,-23.009748458862305,13.569581031799316,0.0
2466,-1.93017578125,-2.846435546875,-4.941650390625,7.450381755828857,-7.114503860473633,4.916030406951904,-28.215055465698242,18.698911666870117,0.0,40.78729248046875,-41.62184143066406,27.84439468383789,-23.000547409057617,13.561866760253906,0.0
