Time,Acc_low_X,Acc_low_Y,Acc_low_Z,Gyro_low_X,Gyro_low_Y,Gyro_low_Z,Acc_X,Acc_Y,Acc_Z,Gyro_X,Gyro_Y,Gyro_Z,Euler_X,Euler_Y,Euler_Z
0,-2.90673828125,-2.801025390625,-3.9208984375,7.893129825592041,-7.190839767456055,4.992366313934326,-29.850744247436523,31.099611282348633,0.0,32.58283996582031,-29.68378448486328,20.60848617553711,-27.855680465698242,29.157276153564453,0.0
5,-2.90673828125,-2.8017578125,-3.916259765625,7.282442569732666,-7.541984558105469,4.687022686004639,-29.87610626220703,31.117225646972656,0.0,32.6192512512207,-29.721494674682617,20.631921768188477,-28.831012725830078,30.102201461791992,0.0
10,-2.91064453125,-2.79833984375,-3.92529296875,7.190839767456055,-7.43511438369751,4.946564674377441,-29.797386169433594,31.1230411529541,0.0,32.65520477294922,-29.758670806884766,20.656654357910156,-29.12555694580078,30.41388511657715,0.0
15,-2.908447265625,-2.7978515625,-3.919921875,7.41984748840332,-7.160305500030518,4.732824325561523,-29.8215274810791,31.128395080566406,0.0,32.69230270385742,-29.794471740722656,20.68031883239746,-29.270254135131836,30.56415557861328,0.0
20,-2.91015625,-2.79736328125,-3.919921875,7.328244209289551,-7.511450290679932,4.534351348876953,-29.812053680419922,31.144784927368164,0.0,32.72894287109375,-29.832029342651367,20.702991485595703,-29.348573684692383,30.649457931518555,0.0
25,-2.91064453125,-2.80126953125,-3.92041015625,7.343511581420898,-7.282442569732666,4.824427604675293,-29.843095779418945,31.13499641418457,0.0,32.76565933227539,-29.868440628051758,20.727113723754883,-29.399948120117188,30.69959831237793,0.0
30,-2.904052734375,-2.798583984375,-3.9189453125,7.160305500030518,-7.2366414070129395,4.656488418579102,-29.845237731933594,31.092012405395508,0.0,32.80146026611328,-29.90462303161621,20.750396728515625,-29.432592391967773,30.72439193725586,0.0
35,-2.90380859375,-2.800537109375,-3.921875,7.755725383758545,-7.2366414070129395,4.748091697692871,-29.851295471191406,31.07137680053711,0.0,32.840240478515625,-29.940805435180664,20.774137496948242,-29.450809478759766,30.735946655273438,0.0
40,-2.907470703125,-2.799560546875,-3.92041015625,7.511450290679932,-7.068702220916748,4.85496187210083,-29.83758544921875,31.112564086914062,0.0,32.8777961730957,-29.97614860534668,20.798412322998047,-29.460275650024414,30.74625587463379,0.0
45,-2.906494140625,-2.79931640625,-3.918701171875,7.3740458488464355,-7.190839767456055,4.793893337249756,-29.845333099365234,31.112112045288086,0.0,32.91466522216797,-30.012102127075195,20.8223819732666,-29.465513229370117,30.750402450561523,0.0
50,-2.9091796875,-2.7998046875,-3.922119140625,7.43511438369751,-7.221374034881592,4.56488561630249,-29.827632904052734,31.119396209716797,0.0,32.951839447021484,-30.048208236694336,20.84520721435547,-29.464584350585938,30.751070022583008,0.0
55,-2.90771484375,-2.79833984375,-3.91943359375,7.557251930236816,-7.3740458488464355,4.931297779083252,-29.83003807067871,31.122608184814453,0.0,32.9896240234375,-30.085079193115234,20.869863510131836,-29.460372924804688,30.74820327758789,0.0
60,-2.909423828125,-2.798095703125,-3.925537109375,7.5877861976623535,-7.41984748840332,5.099236488342285,-29.797914505004883,31.11210823059082,0.0,33.02756118774414,-30.12217903137207,20.89535903930664,-29.45130729675293,30.741941452026367,0.0
66,-2.912353515625,-2.799072265625,-3.921142578125,7.282442569732666,-7.389312744140625,4.6259541511535645,-29.815561294555664,31.153467178344727,0.0,33.06397247314453,-30.15912628173828,20.918489456176758,-29.44352149963379,30.737035751342773,0.0
71,-2.910888671875,-2.796630859375,-3.9169921875,7.404580116271973,-7.557251930236816,4.473282337188721,-29.81528091430664,31.16597557067871,0.0,33.1083984375,-30.204469680786133,20.945329666137695,-29.426868438720703,30.723344802856445,0.0
76,-2.91064453125,-2.8017578125,-3.916748046875,7.847328186035156,-7.404580116271973,4.5190839767456055,-29.8623046875,31.149187088012695,0.0,33.14763641357422,-30.241493225097656,20.967926025390625,-29.417346954345703,30.71529769897461,0.0
81,-2.906982421875,-2.80029296875,-3.92431640625,7.465648651123047,-7.41984748840332,4.977099418640137,-29.829631805419922,31.089353561401367,0.0,33.18496322631836,-30.278593063354492,20.99281120300293,-29.406524658203125,30.702436447143555,0.0
86,-2.91162109375,-2.800048828125,-3.918212890625,7.4809160232543945,-7.007633686065674,4.931297779083252,-29.838302612304688,31.156654357910156,0.0,33.22236633300781,-30.313631057739258,21.017467498779297,-29.3952579498291,30.69465446472168,0.0
91,-2.90625,-2.7998046875,-3.918212890625,7.70992374420166,-7.190839767456055,5.114503860473633,-29.852373123168945,31.11058235168457,0.0,33.26091766357422,-30.349584579467773,21.043039321899414,-29.382884979248047,30.682565689086914,0.0
96,-2.91064453125,-2.798095703125,-3.920654296875,7.312977313995361,-7.43511438369751,4.870229244232178,-29.814075469970703,31.143659591674805,0.0,33.297481536865234,-30.386760711669922,21.06739044189453,-29.369800567626953,30.6704044342041,0.0
101,-2.90771484375,-2.799560546875,-3.9150390625,7.389312744140625,-7.496183395385742,4.778625965118408,-29.858713150024414,31.13770294189453,0.0,33.33442687988281,-30.42424201965332,21.091283798217773,-29.35801124572754,30.657072067260742,0.0
106,-2.909912109375,-2.8046875,-3.91455078125,7.312977313995361,-7.465648651123047,4.458015441894531,-29.899333953857422,31.143232345581055,0.0,33.37099075317383,-30.461570739746094,21.11357307434082,-29.347854614257812,30.643665313720703,0.0
111,-2.905517578125,-2.800537109375,-3.931884765625,7.221374034881592,-7.282442569732666,4.641221523284912,-29.805418014526367,31.043489456176758,0.0,33.40709686279297,-30.497982025146484,21.13677978515625,-29.333343505859375,30.62633514404297,0.0
116,-2.91015625,-2.800537109375,-3.91845703125,7.114503860473633,-7.3740458488464355,4.671755790710449,-29.846046447753906,31.141347885131836,0.0,33.44266891479492,-30.534852981567383,21.160139083862305,-29.320772171020508,30.61261558532715,0.0
121,-2.91015625,-2.797607421875,-3.919677734375,7.389312744140625,-7.190839767456055,4.931297779083252,-29.815202713012695,31.145084381103516,0.0,33.4796142578125,-30.5708065032959,21.184795379638672,-29.305240631103516,30.599571228027344,0.0
126,-2.91259765625,-2.7978515625,-3.918701171875,7.41984748840332,-7.129770755767822,4.641221523284912,-29.813961029052734,31.169795989990234,0.0,33.5167121887207,-30.606454849243164,21.2080020904541,-29.289308547973633,30.587419509887695,0.0
131,-2.911865234375,-2.800537109375,-3.918212890625,7.511450290679932,-7.160305500030518,5.282442569732666,-29.841876983642578,31.157285690307617,0.0,33.55426788330078,-30.642255783081055,21.23441505432129,-29.273807525634766,30.574254989624023,0.0
136,-2.910400390625,-2.797119140625,-3.921630859375,7.404580116271973,-7.5877861976623535,4.671755790710449,-29.802215576171875,31.14033317565918,0.0,33.59128952026367,-30.680194854736328,21.257774353027344,-29.257179260253906,30.558101654052734,0.0
141,-2.908203125,-2.80224609375,-3.92919921875,7.328244209289551,-7.70992374420166,4.870229244232178,-29.82333755493164,31.07315444946289,0.0,33.6279296875,-30.7187442779541,21.28212547302246,-29.241548538208008,30.538848876953125,0.0
146,-2.90966796875,-2.80322265625,-3.927001953125,7.175572395324707,-7.4809160232543945,4.839694499969482,-29.83647346496582,31.092323303222656,0.0,33.6638069152832,-30.756149291992188,21.306324005126953,-29.226943969726562,30.52136993408203,0.0
152,-2.910888671875,-2.79736328125,-3.913818359375,7.41984748840332,-7.541984558105469,4.900763511657715,-29.834659576416016,31.177349090576172,0.0,33.70832443237305,-30.801401138305664,21.33572769165039,-29.2037410736084,30.49903678894043,0.0
157,-2.907958984375,-2.80224609375,-3.927734375,7.572519302368164,-6.916030406951904,4.748091697692871,-29.830026626586914,31.077287673950195,0.0,33.746185302734375,-30.835981369018555,21.359468460083008,-29.186925888061523,30.483877182006836,0.0
162,-2.90625,-2.79931640625,-3.923583984375,7.465648651123047,-7.358778476715088,4.610687255859375,-29.826196670532227,31.089080810546875,0.0,33.783512115478516,-30.87277603149414,21.382522583007812,-29.170408248901367,30.466829299926758,0.0
167,-2.908935546875,-2.799560546875,-3.92431640625,7.557251930236816,-7.3740458488464355,4.885496139526367,-29.817279815673828,31.10860824584961,0.0,33.82129669189453,-30.90964698791504,21.406949996948242,-29.153079986572266,30.450237274169922,0.0
172,-2.912841796875,-2.80517578125,-3.921630859375,7.740458011627197,-7.160305500030518,4.702290058135986,-29.865966796875,31.13695526123047,0.0,33.86000061035156,-30.94544792175293,21.430461883544922,-29.13621711730957,30.4354305267334,0.0
177,-2.910400390625,-2.799560546875,-3.919921875,7.816793918609619,-7.297709941864014,4.778625965118408,-29.83072853088379,31.14019012451172,0.0,33.899085998535156,-30.981937408447266,21.454355239868164,-29.117877960205078,30.419902801513672,0.0
182,-2.907470703125,-2.800048828125,-3.921630859375,7.404580116271973,-7.358778476715088,4.671755790710449,-29.836929321289062,31.105846405029297,0.0,33.93610763549805,-31.01873207092285,21.47771453857422,-29.1016788482666,30.40301513671875,0.0
187,-2.90966796875,-2.797119140625,-3.91943359375,7.343511581420898,-7.358778476715088,4.6259541511535645,-29.813356399536133,31.143369674682617,0.0,33.97282409667969,-31.055526733398438,21.500844955444336,-29.085052490234375,30.3870849609375,0.0
192,-2.908447265625,-2.800537109375,-3.92578125,7.633587837219238,-7.343511581420898,4.641221523284912,-29.8214168548584,31.09510612487793,0.0,34.010990142822266,-31.09224510192871,21.524051666259766,-29.067167282104492,30.369869232177734,0.0
197,-2.907958984375,-2.80029296875,-3.916748046875,7.43511438369751,-7.4809160232543945,4.671755790710449,-29.857486724853516,31.130264282226562,0.0,34.04816436767578,-31.129650115966797,21.54741096496582,-29.0511417388916,30.35285758972168,0.0
202,-2.909423828125,-2.8046875,-3.920654296875,7.633587837219238,-7.511450290679932,4.717557430267334,-29.87595558166504,31.11285972595215,0.0,34.08633041381836,-31.167207717895508,21.570999145507812,-29.03451919555664,30.33521270751953,0.0
207,-2.907470703125,-2.7958984375,-3.920166015625,7.633587837219238,-7.14503812789917,4.702290058135986,-29.80621910095215,31.124807357788086,0.0,34.12449645996094,-31.202932357788086,21.594511032104492,-29.016111373901367,30.319625854492188,0.0
212,-2.908203125,-2.80126953125,-3.92626953125,7.679389476776123,-7.4809160232543945,4.885496139526367,-29.826631546020508,31.088655471801758,0.0,34.16289520263672,-31.240337371826172,21.618938446044922,-28.997970581054688,30.301464080810547,0.0
217,-2.90576171875,-2.7998046875,-3.92041015625,7.740458011627197,-7.282442569732666,4.916030406951904,-29.844900131225586,31.09691619873047,0.0,34.20159912109375,-31.276748657226562,21.643518447875977,-28.97994613647461,30.284475326538086,0.0
222,-2.908935546875,-2.80126953125,-3.922119140625,7.740458011627197,-7.099236488342285,4.656488418579102,-29.8413028717041,31.112791061401367,0.0,34.24030303955078,-31.312244415283203,21.66680145263672,-28.961816787719727,30.26872444152832,0.0
227,-2.907958984375,-2.7998046875,-3.92236328125,7.450381755828857,-7.3740458488464355,4.58015251159668,-29.830322265625,31.10771369934082,0.0,34.27755355834961,-31.3491153717041,21.6897029876709,-28.944843292236328,30.251462936401367,0.0
233,-2.909912109375,-2.80078125,-3.922119140625,7.358778476715088,-7.5877861976623535,4.702290058135986,-29.83404541015625,31.122793197631836,0.0,34.32170486450195,-31.394641876220703,21.71791648864746,-28.921186447143555,30.226070404052734,0.0
238,-2.910888671875,-2.801025390625,-3.9150390625,6.916030406951904,-7.328244209289551,4.534351348876953,-29.86205291748047,31.16088104248047,0.0,34.356285095214844,-31.431283950805664,21.740589141845703,-28.907608032226562,30.210344314575195,0.0
243,-2.9072265625,-2.79443359375,-3.92333984375,7.465648651123047,-7.5877861976623535,4.473282337188721,-29.781105041503906,31.113550186157227,0.0,34.393611907958984,-31.469223022460938,21.762954711914062,-28.889514923095703,30.19228172302246,0.0
248,-2.907958984375,-2.802734375,-3.91455078125,7.603053569793701,-7.465648651123047,4.793893337249756,-29.88800048828125,31.13219451904297,0.0,34.43162536621094,-31.50655174255371,21.786924362182617,-28.872982025146484,30.175207138061523,0.0
253,-2.90869140625,-2.801513671875,-3.923095703125,7.740458011627197,-7.206106662750244,4.610687255859375,-29.840221405029297,31.10573959350586,0.0,34.47032928466797,-31.54258155822754,21.809978485107422,-28.854747772216797,30.158843994140625,0.0
258,-2.906982421875,-2.79736328125,-3.925048828125,7.572519302368164,-7.358778476715088,4.595419883728027,-29.800779342651367,31.09515953063965,0.0,34.5081901550293,-31.579376220703125,21.832956314086914,-28.8365478515625,30.141496658325195,0.0
263,-2.907470703125,-2.796875,-3.924072265625,7.557251930236816,-7.175572395324707,4.610687255859375,-29.798965454101562,31.105087280273438,0.0,34.54597473144531,-31.615253448486328,21.85601043701172,-28.818401336669922,30.125244140625,0.0
268,-2.91015625,-2.79736328125,-3.92236328125,7.770992279052734,-7.465648651123047,4.885496139526367,-29.802133560180664,31.134321212768555,0.0,34.58483123779297,-31.6525821685791,21.88043785095215,-28.79928207397461,30.108110427856445,0.0
273,-2.913330078125,-2.799072265625,-3.925537109375,7.297709941864014,-7.41984748840332,4.946564674377441,-29.79477310180664,31.143144607543945,0.0,34.62131881713867,-31.689682006835938,21.905170440673828,-28.782377243041992,30.09135627746582,0.0
278,-2.906982421875,-2.798095703125,-3.91650390625,7.526717662811279,-7.3740458488464355,4.702290058135986,-29.842018127441406,31.12952423095703,0.0,34.65895080566406,-31.726552963256836,21.928682327270508,-28.765226364135742,30.074552536010742,0.0
283,-2.90869140625,-2.79736328125,-3.919189453125,7.160305500030518,-7.251908302307129,5.099236488342285,-29.8194522857666,31.135156631469727,0.0,34.69475173950195,-31.7628116607666,21.954177856445312,-28.749446868896484,30.058441162109375,0.0
288,-2.91015625,-2.80224609375,-3.9189453125,7.404580116271973,-7.679389476776123,4.748091697692871,-29.859149932861328,31.13402557373047,0.0,34.731773376464844,-31.80120849609375,21.97791862487793,-28.733154296875,30.040184020996094,0.0
293,-2.909423828125,-2.7998046875,-3.919677734375,7.2366414070129395,-7.633587837219238,5.053435325622559,-29.83682632446289,31.13197898864746,0.0,34.7679557800293,-31.83937644958496,22.003185272216797,-28.717262268066406,30.022130966186523,0.0
298,-2.912353515625,-2.80322265625,-3.923095703125,7.43511438369751,-7.603053569793701,5.221374034881592,-29.844257354736328,31.13241195678711,0.0,34.80513000488281,-31.877391815185547,22.029293060302734,-28.700496673583984,30.004247665405273,0.0
303,-2.911865234375,-2.800048828125,-3.91552734375,7.603053569793701,-7.648854732513428,4.442748069763184,-29.848485946655273,31.1702938079834,0.0,34.843143463134766,-31.91563606262207,22.05150604248047,-28.682968139648438,29.986804962158203,0.0
308,-2.9072265625,-2.800048828125,-3.924560546875,7.496183395385742,-7.679389476776123,5.007633686065674,-29.825748443603516,31.0911808013916,0.0,34.88062286376953,-31.95403289794922,22.0765438079834,-28.665578842163086,29.96786117553711,0.0
314,-2.911865234375,-2.79931640625,-3.92236328125,7.221374034881592,-7.14503812789917,4.595419883728027,-29.81422996520996,31.143238067626953,0.0,34.9239501953125,-31.996902465820312,22.104116439819336,-28.642276763916016,29.945457458496094,0.0
319,-2.912353515625,-2.798828125,-3.92529296875,7.022900581359863,-7.4809160232543945,4.732824325561523,-29.796550750732422,31.13643455505371,0.0,34.95906448364258,-32.034305572509766,22.12778091430664,-28.62686538696289,29.92840003967285,0.0
324,-2.909912109375,-2.8017578125,-3.918701171875,7.3740458488464355,-7.328244209289551,4.824427604675293,-29.856571197509766,31.134437561035156,0.0,34.995933532714844,-32.070945739746094,22.15190315246582,-28.610687255859375,29.91206169128418,0.0
329,-2.90771484375,-2.8017578125,-3.920166015625,7.5877861976623535,-7.389312744140625,4.748091697692871,-29.85724449157715,31.109018325805664,0.0,35.033870697021484,-32.10789108276367,22.175643920898438,-28.59345245361328,29.895004272460938,0.0
334,-2.91015625,-2.801513671875,-3.92626953125,7.572519302368164,-7.41984748840332,4.381679534912109,-29.82290267944336,31.104921340942383,0.0,35.07173156738281,-32.144989013671875,22.197551727294922,-28.575748443603516,29.87773895263672,0.0
339,-2.90869140625,-2.8017578125,-3.915283203125,7.3740458488464355,-6.916030406951904,4.656488418579102,-29.874176025390625,31.138437271118164,0.0,35.10860061645508,-32.179569244384766,22.220834732055664,-28.55984115600586,29.863494873046875,0.0
344,-2.908447265625,-2.800048828125,-3.9150390625,7.603053569793701,-7.282442569732666,4.671755790710449,-29.860811233520508,31.142593383789062,0.0,35.14661407470703,-32.215980529785156,22.24419403076172,-28.54258155822754,29.847475051879883,0.0
349,-2.90625,-2.79931640625,-3.922607421875,7.358778476715088,-6.946564674377441,4.702290058135986,-29.830169677734375,31.093259811401367,0.0,35.183406829833984,-32.25071334838867,22.2677059173584,-28.526060104370117,29.83234214782715,0.0
354,-2.906005859375,-2.802978515625,-3.930419921875,7.541984558105469,-7.41984748840332,5.129770755767822,-29.831445693969727,31.046567916870117,0.0,35.22111511230469,-32.287811279296875,22.293354034423828,-28.508657455444336,29.81416130065918,0.0
359,-2.909912109375,-2.796630859375,-3.9208984375,6.992366313934326,-6.885496139526367,5.083969593048096,-29.802350997924805,31.140710830688477,0.0,35.25607681274414,-32.32223892211914,22.31877326965332,-28.493541717529297,29.80006217956543,0.0
364,-2.90673828125,-2.79931640625,-3.919921875,7.297709941864014,-7.4809160232543945,4.946564674377441,-29.83962631225586,31.10901641845703,0.0,35.292564392089844,-32.359642028808594,22.343505859375,-28.477458953857422,29.782529830932617,0.0
369,-2.907958984375,-2.795166015625,-3.91650390625,7.450381755828857,-7.465648651123047,4.7633585929870605,-29.81316566467285,31.14701271057129,0.0,35.32981491088867,-32.396968841552734,22.36732292175293,-28.460237503051758,29.76565170288086,0.0
374,-2.906005859375,-2.79931640625,-3.9228515625,7.465648651123047,-7.114503860473633,4.229007720947266,-29.829912185668945,31.090087890625,0.0,35.36714172363281,-32.43254089355469,22.38846778869629,-28.443201065063477,29.74969482421875,0.0
379,-2.90869140625,-2.802001953125,-3.92529296875,7.43511438369751,-7.41984748840332,4.85496187210083,-29.835596084594727,31.094850540161133,0.0,35.40431594848633,-32.46963882446289,22.412742614746094,-28.426410675048828,29.73230743408203,0.0
384,-2.910888671875,-2.79736328125,-3.9287109375,7.633587837219238,-7.160305500030518,4.641221523284912,-29.774150848388672,31.11351203918457,0.0,35.442481994628906,-32.50543975830078,22.435949325561523,-28.40778923034668,29.71649169921875,0.0
389,-2.910888671875,-2.80126953125,-3.915283203125,7.2366414070129395,-7.297709941864014,4.946564674377441,-29.86321449279785,31.159086227416992,0.0,35.47866439819336,-32.541927337646484,22.460681915283203,-28.39241600036621,29.70063591003418,0.0
395,-2.908935546875,-2.80029296875,-3.92431640625,7.541984558105469,-7.312977313995361,4.442748069763184,-29.823745727539062,31.106372833251953,0.0,35.52391815185547,-32.5858039855957,22.48733901977539,-28.367570877075195,29.67679214477539,0.0
400,-2.908203125,-2.801025390625,-3.92236328125,7.43511438369751,-7.572519302368164,4.824427604675293,-29.840364456176758,31.106109619140625,0.0,35.561092376708984,-32.62366485595703,22.51146125793457,-28.351043701171875,29.658994674682617,0.0
405,-2.907958984375,-2.802001953125,-3.9189453125,7.4809160232543945,-7.099236488342285,4.992366313934326,-29.86363410949707,31.115623474121094,0.0,35.59849548339844,-32.65916061401367,22.536422729492188,-28.334617614746094,29.643693923950195,0.0
410,-2.910888671875,-2.800537109375,-3.9208984375,7.43511438369751,-7.358778476715088,4.916030406951904,-29.833908081054688,31.13727378845215,0.0,35.63566970825195,-32.695953369140625,22.561002731323242,-28.318025588989258,29.62740135192871,0.0
415,-2.911376953125,-2.7958984375,-3.927490234375,7.3740458488464355,-7.038167953491211,4.656488418579102,-29.76470184326172,31.127458572387695,0.0,35.67253875732422,-32.731143951416016,22.584285736083984,-28.300830841064453,29.612571716308594,0.0
420,-2.9072265625,-2.802001953125,-3.91650390625,7.404580116271973,-7.206106662750244,4.748091697692871,-29.875791549682617,31.11968994140625,0.0,35.70956039428711,-32.767173767089844,22.6080265045166,-28.284976959228516,29.5968074798584,0.0
425,-2.91064453125,-2.800048828125,-3.924072265625,7.877862453460693,-7.114503860473633,4.671755790710449,-29.817432403564453,31.123048782348633,0.0,35.74895095825195,-32.8027458190918,22.631385803222656,-28.26603126525879,29.5815486907959,0.0
430,-2.90576171875,-2.799072265625,-3.9189453125,7.358778476715088,-7.175572395324707,4.5190839767456055,-29.844392776489258,31.105426788330078,0.0,35.785743713378906,-32.838623046875,22.653982162475586,-28.250043869018555,29.565763473510742,0.0
435,-2.90966796875,-2.7958984375,-3.916015625,7.618320465087891,-7.114503860473633,4.473282337188721,-29.816465377807617,31.161767959594727,0.0,35.82383346557617,-32.87419509887695,22.676347732543945,-28.2324275970459,29.55101203918457,0.0
440,-2.908203125,-2.800537109375,-3.921630859375,7.267175674438477,-7.526717662811279,4.549618244171143,-29.839033126831055,31.110736846923828,0.0,35.86016845703125,-32.911827087402344,22.6990966796875,-28.21686553955078,29.5335750579834,0.0
445,-2.911376953125,-2.80322265625,-3.91845703125,7.465648651123047,-7.358778476715088,4.6259541511535645,-29.86606788635254,31.143760681152344,0.0,35.89749526977539,-32.9486198425293,22.722227096557617,-28.200668334960938,29.51741600036621,0.0
450,-2.906005859375,-2.8046875,-3.918701171875,7.465648651123047,-7.648854732513428,5.083969593048096,-29.89423942565918,31.091421127319336,0.0,35.93482208251953,-32.98686599731445,22.74764633178711,-28.184833526611328,29.49919319152832,0.0
455,-2.908935546875,-2.8046875,-3.923828125,7.557251930236816,-7.206106662750244,4.824427604675293,-29.864511489868164,31.09503746032715,0.0,35.97260665893555,-33.02289581298828,22.77176856994629,-28.16818618774414,29.48324966430664,0.0
460,-2.909423828125,-2.801025390625,-3.921875,7.862595558166504,-7.267175674438477,4.732824325561523,-29.838666915893555,31.118837356567383,0.0,36.01192092895508,-33.05923080444336,22.795433044433594,-28.149738311767578,29.467315673828125,0.0
465,-2.911376953125,-2.805419921875,-3.918701171875,7.496183395385742,-7.251908302307129,4.595419883728027,-29.884464263916016,31.135986328125,0.0,36.049400329589844,-33.095489501953125,22.818410873413086,-28.133699417114258,29.451684951782227,0.0
470,-2.90966796875,-2.7978515625,-3.920166015625,7.358778476715088,-6.977099418640137,4.748091697692871,-29.816850662231445,31.137989044189453,0.0,36.0861930847168,-33.130374908447266,22.842151641845703,-28.11754035949707,29.437450408935547,0.0
476,-2.9111328125,-2.80126953125,-3.9267578125,7.496183395385742,-7.083969593048096,4.671755790710449,-29.815824508666992,31.11208152770996,0.0,36.12367248535156,-33.165794372558594,22.865510940551758,-28.100711822509766,29.422378540039062,0.0
481,-2.913818359375,-2.8017578125,-3.92724609375,7.297709941864014,-7.297709941864014,4.885496139526367,-29.810062408447266,31.131877899169922,0.0,36.167457580566406,-33.20957946777344,22.89482307434082,-28.07765007019043,29.399316787719727,0.0
486,-2.90869140625,-2.79443359375,-3.921875,6.992366313934326,-7.389312744140625,4.458015441894531,-29.782644271850586,31.132600784301758,0.0,36.20241928100586,-33.246524810791016,22.917112350463867,-28.063091278076172,29.383129119873047,0.0
491,-2.909423828125,-2.800048828125,-3.917236328125,7.511450290679932,-7.541984558105469,4.7633585929870605,-29.848915100097656,31.141691207885742,0.0,36.23997497558594,-33.28423309326172,22.940929412841797,-28.0467472076416,29.366317749023438,0.0
496,-2.909912109375,-2.8017578125,-3.92138671875,7.267175674438477,-7.358778476715088,4.839694499969482,-29.845645904541016,31.122941970825195,0.0,36.276309967041016,-33.32102584838867,22.96512794494629,-28.031597137451172,29.3502254486084,0.0
501,-2.910888671875,-2.80126953125,-3.919921875,7.3740458488464355,-7.114503860473633,4.885496139526367,-29.844345092773438,31.13921356201172,0.0,36.31317901611328,-33.356597900390625,22.98955535888672,-28.015914916992188,29.335554122924805,0.0
506,-2.90869140625,-2.80078125,-3.92529296875,7.328244209289551,-7.190839767456055,4.58015251159668,-29.82482147216797,31.098575592041016,0.0,36.34981918334961,-33.39255142211914,23.0124568939209,-28.000255584716797,29.320053100585938,0.0
511,-2.91015625,-2.798095703125,-3.92724609375,7.541984558105469,-7.190839767456055,4.56488561630249,-29.788768768310547,31.11117172241211,0.0,36.38752746582031,-33.428504943847656,23.035282135009766,-27.983154296875,29.304718017578125,0.0
516,-2.909423828125,-2.800048828125,-3.923583984375,7.358778476715088,-7.068702220916748,4.748091697692871,-29.823097229003906,31.114505767822266,0.0,36.424320220947266,-33.46384811401367,23.059022903442383,-27.967384338378906,29.2900447845459,0.0
521,-2.911376953125,-2.7978515625,-3.92578125,7.954198360443115,-7.221374034881592,4.702290058135986,-29.78888702392578,31.128820419311523,0.0,36.46409225463867,-33.49995422363281,23.082534790039062,-27.948314666748047,29.274789810180664,0.0
526,-2.910888671875,-2.798095703125,-3.9169921875,7.72519063949585,-7.160305500030518,4.748091697692871,-29.82822608947754,31.161487579345703,0.0,36.50271987915039,-33.5357551574707,23.10627555847168,-27.930875778198242,29.26021957397461,0.0
531,-2.908203125,-2.80078125,-3.92041015625,7.175572395324707,-7.312977313995361,4.29007625579834,-29.846155166625977,31.115215301513672,0.0,36.538597106933594,-33.57231903076172,23.12772560119629,-27.91639518737793,29.244396209716797,0.0
536,-2.908203125,-2.79931640625,-3.919189453125,7.282442569732666,-7.343511581420898,4.793893337249756,-29.838184356689453,31.124923706054688,0.0,36.575008392333984,-33.60903549194336,23.151695251464844,-27.901309967041016,29.228557586669922,0.0
541,-2.911376953125,-2.80078125,-3.912841796875,7.41984748840332,-7.190839767456055,4.85496187210083,-29.867361068725586,31.17530632019043,0.0,36.61210632324219,-33.644989013671875,23.17597007751465,-27.88587760925293,29.21405029296875,0.0
546,-2.906982421875,-2.802001953125,-3.916259765625,7.450381755828857,-7.41984748840332,4.641221523284912,-29.87752342224121,31.118606567382812,0.0,36.649356842041016,-33.68208694458008,23.199176788330078,-27.870424270629883,29.197811126708984,0.0
551,-2.90478515625,-2.80126953125,-3.92041015625,7.816793918609619,-7.206106662750244,4.900763511657715,-29.86078453063965,31.083921432495117,0.0,36.68844223022461,-33.718116760253906,23.22368049621582,-27.853002548217773,29.182296752929688,0.0
557,-2.9091796875,-2.80078125,-3.926025390625,7.267175674438477,-7.206106662750244,4.671755790710449,-29.82037353515625,31.09969711303711,0.0,36.72477722167969,-33.754146575927734,23.247039794921875,-27.837915420532227,29.166980743408203,0.0
562,-2.9111328125,-2.800537109375,-3.923095703125,7.938931465148926,-7.541984558105469,4.748091697692871,-29.82423973083496,31.12999153137207,0.0,36.77241134643555,-33.799400329589844,23.275527954101562,-27.811750411987305,29.142927169799805,0.0
567,-2.906982421875,-2.798583984375,-3.92431640625,7.618320465087891,-7.450381755828857,4.839694499969482,-29.81454086303711,31.094568252563477,0.0,36.81050109863281,-33.83665084838867,23.299726486206055,-27.79506492614746,29.126535415649414,0.0
572,-2.908935546875,-2.8017578125,-3.92138671875,7.526717662811279,-7.557251930236816,4.85496187210083,-29.84859275817871,31.11443328857422,0.0,36.8481330871582,-33.87443542480469,23.32400131225586,-27.77922821044922,29.10986328125,0.0
577,-2.908203125,-2.800048828125,-3.918701171875,7.4809160232543945,-7.312977313995361,4.885496139526367,-29.846641540527344,31.124774932861328,0.0,36.885536193847656,-33.9109992980957,23.34842872619629,-27.763628005981445,29.09454917907715,0.0
582,-2.911376953125,-2.801025390625,-3.918701171875,7.404580116271973,-7.068702220916748,4.396946430206299,-29.845678329467773,31.149444580078125,0.0,36.92255783081055,-33.94634246826172,23.370412826538086,-27.748424530029297,29.08072853088379,0.0
587,-2.90869140625,-2.80126953125,-3.93017578125,7.3740458488464355,-7.175572395324707,4.885496139526367,-29.80928611755371,31.076208114624023,0.0,36.95942687988281,-33.98221969604492,23.394840240478516,-27.73302459716797,29.065643310546875,0.0
592,-2.90673828125,-2.79833984375,-3.927734375,7.3740458488464355,-7.43511438369751,4.717557430267334,-29.799222946166992,31.07855987548828,0.0,36.99629592895508,-34.01939392089844,23.418428421020508,-27.717552185058594,29.049327850341797,0.0
597,-2.91162109375,-2.798828125,-3.91552734375,7.541984558105469,-6.961832046508789,4.748091697692871,-29.83843994140625,31.17190933227539,0.0,37.03400421142578,-34.054203033447266,23.442169189453125,-27.701679229736328,29.036344528198242,0.0
602,-2.904296875,-2.79931640625,-3.923095703125,7.2366414070129395,-7.282442569732666,4.900763511657715,-29.834070205688477,31.074140548706055,0.0,37.070186614990234,-34.090614318847656,23.466672897338867,-27.68730926513672,29.020797729492188,0.0
607,-2.90966796875,-2.795166015625,-3.920654296875,7.358778476715088,-7.297709941864014,4.748091697692871,-29.791133880615234,31.14410972595215,0.0,37.10697937011719,-34.12710189819336,23.490413665771484,-27.671924591064453,29.005910873413086,0.0
612,-2.90771484375,-2.8017578125,-3.922607421875,7.618320465087891,-7.190839767456055,5.083969593048096,-29.847309112548828,31.098573684692383,0.0,37.14506912231445,-34.163055419921875,23.515832901000977,-27.65584945678711,28.99112892150879,0.0
617,-2.910400390625,-2.801513671875,-3.922607421875,7.603053569793701,-7.358778476715088,5.007633686065674,-29.837053298950195,31.122716903686523,0.0,37.183082580566406,-34.19984817504883,23.540870666503906,-27.639787673950195,28.975784301757812,0.0
622,-2.9091796875,-2.800048828125,-3.926513671875,7.221374034881592,-7.343511581420898,4.85496187210083,-29.81192398071289,31.099842071533203,0.0,37.21918869018555,-34.23656463623047,23.56514549255371,-27.625408172607422,28.960325241088867,0.0
627,-2.912353515625,-2.7998046875,-3.924560546875,7.3740458488464355,-7.267175674438477,4.916030406951904,-29.80814552307129,31.136587142944336,0.0,37.25605773925781,-34.27289962768555,23.589725494384766,-27.610260009765625,28.94564437866211,0.0
632,-2.90966796875,-2.80126953125,-3.92529296875,7.72519063949585,-7.175572395324707,4.793893337249756,-29.826189041137695,31.105592727661133,0.0,37.29468536376953,-34.30877685546875,23.61369514465332,-27.593582153320312,28.93114471435547,0.0
638,-2.90771484375,-2.800048828125,-3.92333984375,7.389312744140625,-7.43511438369751,4.534351348876953,-29.829240798950195,31.10066032409668,0.0,37.33163070678711,-34.345951080322266,23.636367797851562,-27.578645706176758,28.915340423583984,0.0
643,-2.9052734375,-2.80078125,-3.92138671875,7.633587837219238,-6.946564674377441,4.870229244232178,-29.85102081298828,31.085494995117188,0.0,37.37743377685547,-34.387630462646484,23.66558837890625,-27.555225372314453,28.895015716552734,0.0
648,-2.9111328125,-2.801513671875,-3.922607421875,7.41984748840332,-7.297709941864014,4.946564674377441,-29.8348445892334,31.12909698486328,0.0,37.41453170776367,-34.42411804199219,23.69032096862793,-27.540380477905273,28.88033676147461,0.0
653,-2.908203125,-2.79931640625,-3.930908203125,7.755725383758545,-7.251908302307129,4.610687255859375,-29.790544509887695,31.07477378845215,0.0,37.453311920166016,-34.46037673950195,23.713375091552734,-27.523481369018555,28.865400314331055,0.0
658,-2.90673828125,-2.7998046875,-3.923583984375,7.343511581420898,-7.267175674438477,5.160305500030518,-29.829036712646484,31.091848373413086,0.0,37.490028381347656,-34.49671173095703,23.73917579650879,-27.50904083251953,28.850587844848633,0.0
663,-2.91015625,-2.798583984375,-3.919677734375,7.2366414070129395,-7.404580116271973,4.916030406951904,-29.823833465576172,31.1420955657959,0.0,37.52621078491211,-34.53373336791992,23.763755798339844,-27.4951114654541,28.83560562133789,0.0
668,-2.90771484375,-2.800048828125,-3.915283203125,7.43511438369751,-7.526717662811279,4.870229244232178,-29.86203384399414,31.135160446166992,0.0,37.563385009765625,-34.57136535644531,23.78810691833496,-27.48058319091797,28.819988250732422,0.0
673,-2.9091796875,-2.80029296875,-3.921875,7.099236488342285,-7.038167953491211,4.671755790710449,-29.832937240600586,31.118947982788086,0.0,37.598880767822266,-34.6065559387207,23.811466217041016,-27.46747589111328,28.806682586669922,0.0
678,-2.909423828125,-2.79931640625,-3.91796875,7.282442569732666,-7.3740458488464355,4.473282337188721,-29.839466094970703,31.14079475402832,0.0,37.635292053222656,-34.64342498779297,23.833831787109375,-27.453540802001953,28.79193878173828,0.0
683,-2.909423828125,-2.79833984375,-3.923095703125,7.8015265464782715,-7.251908302307129,4.992366313934326,-29.80999183654785,31.121816635131836,0.0,37.67430114746094,-34.679683685302734,23.858793258666992,-27.436786651611328,28.777660369873047,0.0
688,-2.9091796875,-2.801025390625,-3.92138671875,7.099236488342285,-7.343511581420898,4.809160232543945,-29.84139060974121,31.118799209594727,0.0,37.70979690551758,-34.716400146484375,23.88283920288086,-27.423856735229492,28.76293182373047,0.0
693,-2.908203125,-2.801025390625,-3.916259765625,7.190839767456055,-6.977099418640137,4.778625965118408,-29.86520767211914,31.13224220275879,0.0,37.745750427246094,-34.751285552978516,23.9067325592041,-27.41071128845215,28.750181198120117,0.0
698,-2.910400390625,-2.8017578125,-3.91357421875,7.450381755828857,-7.221374034881592,4.427480697631836,-29.87596321105957,31.16065788269043,0.0,37.78300094604492,-34.787391662597656,23.928869247436523,-27.396398544311523,28.736501693725586,0.0
703,-2.907958984375,-2.7998046875,-3.93017578125,7.511450290679932,-7.160305500030518,4.992366313934326,-29.79856300354004,31.074291229248047,0.0,37.820556640625,-34.82319259643555,23.95383071899414,-27.381107330322266,28.72236442565918,0.0
708,-2.90771484375,-2.79931640625,-3.92626953125,7.4809160232543945,-7.2366414070129395,5.099236488342285,-29.810861587524414,31.09035873413086,0.0,37.85795974731445,-34.859375,23.979326248168945,-27.36612319946289,28.708030700683594,0.0
713,-2.906494140625,-2.80078125,-3.919677734375,7.358778476715088,-7.251908302307129,4.732824325561523,-29.85429573059082,31.103450775146484,0.0,37.894752502441406,-34.895633697509766,24.00299072265625,-27.3521785736084,28.69377899169922,0.0
718,-2.90771484375,-2.8037109375,-3.92578125,7.358778476715088,-7.053435325622559,4.977099418640137,-29.85163116455078,31.07904052734375,0.0,37.93154525756836,-34.93090057373047,24.027875900268555,-27.338241577148438,28.680326461791992,0.0
724,-2.908935546875,-2.803955078125,-3.921142578125,7.648854732513428,-7.41984748840332,4.503816604614258,-29.86897850036621,31.1087589263916,0.0,37.977439880371094,-34.97541809082031,24.054899215698242,-27.31552505493164,28.658050537109375,0.0
729,-2.91015625,-2.795654296875,-3.921875,7.511450290679932,-6.931297779083252,5.007633686065674,-29.789018630981445,31.141637802124023,0.0,38.01499557495117,-35.010074615478516,24.079936981201172,-27.300460815429688,28.645952224731445,0.0
734,-2.906982421875,-2.799560546875,-3.9130859375,7.572519302368164,-7.007633686065674,4.6259541511535645,-29.868885040283203,31.139684677124023,0.0,38.0528564453125,-35.04511260986328,24.10306739807129,-27.285852432250977,28.63347625732422,0.0
739,-2.91015625,-2.8017578125,-3.92236328125,7.465648651123047,-7.496183395385742,4.85496187210083,-29.8409366607666,31.12088966369629,0.0,38.09018325805664,-35.08259201049805,24.127342224121094,-27.271562576293945,28.618432998657227,0.0
744,-2.9111328125,-2.798828125,-3.923095703125,7.206106662750244,-7.358778476715088,4.534351348876953,-29.809152603149414,31.13521385192871,0.0,38.12621307373047,-35.119384765625,24.150014877319336,-27.258316040039062,28.604244232177734,0.0
749,-2.9091796875,-2.80029296875,-3.92529296875,7.14503812789917,-7.389312744140625,4.458015441894531,-29.819042205810547,31.104320526123047,0.0,38.16193771362305,-35.15633010864258,24.172304153442383,-27.245487213134766,28.589670181274414,0.0
754,-2.908935546875,-2.800537109375,-3.91650390625,7.175572395324707,-7.2366414070129395,4.595419883728027,-29.857685089111328,31.13907814025879,0.0,38.19781494140625,-35.19251251220703,24.195281982421875,-27.232873916625977,28.576202392578125,0.0
759,-2.90625,-2.80322265625,-3.92138671875,7.053435325622559,-7.389312744140625,4.702290058135986,-29.86962890625,31.0865478515625,0.0,38.23308181762695,-35.22945785522461,24.218793869018555,-27.220993041992188,28.56155014038086,0.0
764,-2.90966796875,-2.79736328125,-3.921630859375,7.41984748840332,-7.14503812789917,4.473282337188721,-29.806581497192383,31.13320541381836,0.0,38.270179748535156,-35.26518249511719,24.241159439086914,-27.206762313842773,28.548561096191406,0.0
769,-2.908447265625,-2.799560546875,-3.91796875,7.648854732513428,-7.221374034881592,4.748091697692871,-29.844572067260742,31.131534576416016,0.0,38.30842590332031,-35.30128860473633,24.26490020751953,-27.191768646240234,28.53520965576172,0.0
774,-2.909912109375,-2.797607421875,-3.92138671875,7.6946563720703125,-7.267175674438477,4.458015441894531,-29.80899429321289,31.13563346862793,0.0,38.346900939941406,-35.337623596191406,24.287189483642578,-27.176286697387695,28.52170181274414,0.0
779,-2.907958984375,-2.799072265625,-3.917236328125,7.526717662811279,-7.221374034881592,4.641221523284912,-29.844715118408203,31.131912231445312,0.0,38.3845329284668,-35.37372970581055,24.310396194458008,-27.161996841430664,28.508424758911133,0.0
784,-2.909912109375,-2.80126953125,-3.919189453125,7.206106662750244,-7.068702220916748,4.85496187210083,-29.85027313232422,31.13384246826172,0.0,38.420562744140625,-35.40907287597656,24.334671020507812,-27.149385452270508,28.495954513549805,0.0
789,-2.911865234375,-2.80078125,-3.916748046875,7.206106662750244,-7.618320465087891,5.221374034881592,-29.849990844726562,31.16281509399414,0.0,38.45659255981445,-35.44716262817383,24.36077880859375,-27.136798858642578,28.481035232543945,0.0
794,-2.908935546875,-2.799072265625,-3.921142578125,7.282442569732666,-7.740458011627197,4.961832046508789,-29.82587242126465,31.123689651489258,0.0,38.493003845214844,-35.48586654663086,24.385587692260742,-27.1236572265625,28.465225219726562,0.0
799,-2.908935546875,-2.798095703125,-3.91845703125,7.43511438369751,-7.526717662811279,4.7633585929870605,-29.828168869018555,31.138181686401367,0.0,38.53017807006836,-35.52349853515625,24.409404754638672,-27.10980987548828,28.450654983520508,0.0
805,-2.909423828125,-2.80126953125,-3.920166015625,7.114503860473633,-7.511450290679932,4.793893337249756,-29.847774505615234,31.12540626525879,0.0,38.5728645324707,-35.568565368652344,24.438167572021484,-27.09075927734375,28.4287052154541,0.0
810,-2.90966796875,-2.801513671875,-3.91650390625,7.511450290679932,-7.282442569732666,4.992366313934326,-29.86409568786621,31.14246940612793,0.0,38.61042022705078,-35.604976654052734,24.4631290435791,-27.077016830444336,28.41559410095215,0.0
815,-2.908447265625,-2.803466796875,-3.921142578125,7.43511438369751,-7.312977313995361,4.748091697692871,-29.86614418029785,31.10599708557129,0.0,38.6475944519043,-35.64154052734375,24.48686981201172,-27.06370735168457,28.402057647705078,0.0
820,-2.9091796875,-2.800048828125,-3.921142578125,7.282442569732666,-7.206106662750244,4.732824325561523,-29.83376121520996,31.122831344604492,0.0,38.68400573730469,-35.67757034301758,24.510534286499023,-27.050920486450195,28.38923454284668,0.0
825,-2.907958984375,-2.802001953125,-3.920654296875,7.465648651123047,-6.992366313934326,5.068702220916748,-29.85667610168457,31.10831069946289,0.0,38.72133255004883,-35.71253204345703,24.535877227783203,-27.03744888305664,28.377382278442383,0.0
830,-2.911865234375,-2.798828125,-3.921630859375,7.358778476715088,-7.389312744140625,4.687022686004639,-29.812894821166992,31.147869110107422,0.0,38.75812530517578,-35.74947738647461,24.55931282043457,-27.024179458618164,28.363920211791992,0.0
835,-2.90869140625,-2.797119140625,-3.923583984375,7.450381755828857,-7.541984558105469,4.534351348876953,-29.79943084716797,31.11707305908203,0.0,38.79537582397461,-35.78718566894531,24.581985473632812,-27.0103816986084,28.349483489990234,0.0
840,-2.908203125,-2.798583984375,-3.917724609375,7.541984558105469,-7.603053569793701,5.022900581359863,-29.837675094604492,31.133441925048828,0.0,38.83308410644531,-35.825199127197266,24.607099533081055,-26.996492385864258,28.334930419921875,0.0
845,-2.910400390625,-2.799560546875,-3.919921875,7.389312744140625,-7.251908302307129,4.885496139526367,-29.83072853088379,31.14019012451172,0.0,38.87002944946289,-35.86145782470703,24.631526947021484,-26.98334503173828,28.32222557067871,0.0
850,-2.90673828125,-2.797607421875,-3.925537109375,7.557251930236816,-7.282442569732666,4.916030406951904,-29.801687240600586,31.09019660949707,0.0,38.907814025878906,-35.89786911010742,24.65610694885254,-26.96916389465332,28.308992385864258,0.0
855,-2.90966796875,-2.80126953125,-3.921875,7.3740458488464355,-7.190839767456055,5.053435325622559,-29.840085983276367,31.12021827697754,0.0,38.94468307495117,-35.93382263183594,24.681373596191406,-26.956254959106445,28.29650115966797,0.0
860,-2.904296875,-2.800537109375,-3.91796875,7.251908302307129,-7.282442569732666,4.748091697692871,-29.865737915039062,31.092350006103516,0.0,38.98094177246094,-35.97023391723633,24.705114364624023,-26.944202423095703,28.283363342285156,0.0
865,-2.908203125,-2.801025390625,-3.919189453125,7.404580116271973,-6.946564674377441,4.549618244171143,-29.85327911376953,31.11969566345215,0.0,39.01796340942383,-36.004966735839844,24.727863311767578,-26.931318283081055,28.27215576171875,0.0
870,-2.911865234375,-2.79833984375,-3.9267578125,7.679389476776123,-7.328244209289551,4.748091697692871,-29.787763595581055,31.127399444580078,0.0,39.05636215209961,-36.04160690307617,24.751604080200195,-26.916574478149414,28.259143829345703,0.0
875,-2.911376953125,-2.797607421875,-3.92822265625,7.648854732513428,-7.328244209289551,4.56488561630249,-29.776819229125977,31.119110107421875,0.0,39.094608306884766,-36.0782470703125,24.774429321289062,-26.901948928833008,28.246105194091797,0.0
880,-2.908203125,-2.80419921875,-3.922119140625,7.572519302368164,-7.129770755767822,4.427480697631836,-29.869369506835938,31.097454071044922,0.0,39.132469177246094,-36.113895416259766,24.796566009521484,-26.888507843017578,28.233917236328125,0.0
886,-2.90966796875,-2.8017578125,-3.922119140625,7.5877861976623535,-7.343511581420898,4.839694499969482,-29.843402862548828,31.117679595947266,0.0,39.17799758911133,-36.157955169677734,24.825603485107422,-26.86735725402832,28.213640213012695,0.0
891,-2.90966796875,-2.799072265625,-3.925537109375,7.358778476715088,-7.251908302307129,4.839694499969482,-29.805803298950195,31.111255645751953,0.0,39.21479034423828,-36.1942138671875,24.849802017211914,-26.85466766357422,28.201152801513672,0.0
896,-2.9091796875,-2.798095703125,-3.92041015625,7.450381755828857,-7.160305500030518,4.427480697631836,-29.819488525390625,31.131940841674805,0.0,39.25204086303711,-36.23001480102539,24.871938705444336,-26.8416748046875,28.18932342529297,0.0
901,-2.9072265625,-2.800537109375,-3.921875,7.14503812789917,-6.961832046508789,4.488549709320068,-29.840984344482422,31.101181030273438,0.0,39.28776550292969,-36.26482391357422,24.894380569458008,-26.830411911010742,28.17826271057129,0.0
906,-2.91015625,-2.79833984375,-3.923095703125,7.526717662811279,-7.541984558105469,4.916030406951904,-29.807783126831055,31.128198623657227,0.0,39.32539749145508,-36.30253219604492,24.918960571289062,-26.817014694213867,28.164569854736328,0.0
911,-2.9072265625,-2.7998046875,-3.91650390625,7.251908302307129,-7.43511438369751,4.595419883728027,-29.856380462646484,31.126419067382812,0.0,39.361656188964844,-36.33970642089844,24.941938400268555,-26.805418014526367,28.15144157409668,0.0
916,-2.91064453125,-2.794677734375,-3.927490234375,7.43511438369751,-7.038167953491211,4.687022686004639,-29.75612449645996,31.124801635742188,0.0,39.39883041381836,-36.37489700317383,24.965373992919922,-26.79214096069336,28.140316009521484,0.0
921,-2.9111328125,-2.799560546875,-3.9306640625,7.389312744140625,-7.328244209289551,4.916030406951904,-29.78488540649414,31.100584030151367,0.0,39.43577575683594,-36.411537170410156,24.989953994750977,-26.779367446899414,28.127586364746094,0.0
926,-2.906005859375,-2.801513671875,-3.91748046875,7.496183395385742,-7.755725383758545,4.534351348876953,-29.871191024780273,31.10635757446289,0.0,39.4732551574707,-36.4503173828125,25.01262664794922,-26.766794204711914,28.112825393676758,0.0
931,-2.91015625,-2.80078125,-3.915283203125,7.557251930236816,-7.511450290679932,4.6259541511535645,-29.86111831665039,31.154199600219727,0.0,39.51103973388672,-36.48787307739258,25.035757064819336,-26.753877639770508,28.099716186523438,0.0
936,-2.9072265625,-2.79541015625,-3.925537109375,7.358778476715088,-7.129770755767822,4.7633585929870605,-29.780805587768555,31.10115623474121,0.0,39.54783248901367,-36.523521423339844,25.059574127197266,-26.741352081298828,28.088125228881836,0.0
941,-2.911865234375,-2.801513671875,-3.9248046875,7.43511438369751,-7.541984558105469,4.7633585929870605,-29.823707580566406,31.126070022583008,0.0,39.58500671386719,-36.56122970581055,25.083391189575195,-26.728830337524414,28.074722290039062,0.0
946,-2.908447265625,-2.80078125,-3.91650390625,7.221374034881592,-7.267175674438477,4.977099418640137,-29.861318588256836,31.13407325744629,0.0,39.62111282348633,-36.597564697265625,25.1082763671875,-26.717708587646484,28.062795639038086,0.0
951,-2.91455078125,-2.796142578125,-3.92236328125,7.190839767456055,-7.328244209289551,4.702290058135986,-29.77810287475586,31.17633056640625,0.0,39.657066345214844,-36.63420486450195,25.13178825378418,-26.706113815307617,28.050935745239258,0.0
956,-2.90771484375,-2.8037109375,-3.91796875,7.465648651123047,-7.206106662750244,4.595419883728027,-29.88343620300293,31.112443923950195,0.0,39.694393157958984,-36.67023468017578,25.154766082763672,-26.69401741027832,28.03921890258789,0.0
961,-2.9052734375,-2.800537109375,-3.917236328125,7.343511581420898,-7.282442569732666,4.793893337249756,-29.865772247314453,31.10400390625,0.0,39.731109619140625,-36.70664596557617,25.178735733032227,-26.68242645263672,28.027095794677734,0.0
967,-2.90283203125,-2.80322265625,-3.929443359375,7.221374034881592,-7.358778476715088,4.732824325561523,-29.847118377685547,31.022336959838867,0.0,39.774436950683594,-36.750797271728516,25.20713233947754,-26.664230346679688,28.00675392150879,0.0
972,-2.90576171875,-2.803466796875,-3.91943359375,7.282442569732666,-7.282442569732666,4.610687255859375,-29.881216049194336,31.089895248413086,0.0,39.810848236083984,-36.787208557128906,25.230186462402344,-26.653249740600586,27.994728088378906,0.0
977,-2.911376953125,-2.801513671875,-3.916748046875,7.633587837219238,-7.312977313995361,4.809160232543945,-29.857934951782227,31.15631675720215,0.0,39.84901428222656,-36.82377243041992,25.25423240661621,-26.6403751373291,27.983108520507812,0.0
982,-2.90771484375,-2.799560546875,-3.921142578125,7.679389476776123,-7.465648651123047,4.916030406951904,-29.8338680267334,31.111557006835938,0.0,39.887413024902344,-36.86109924316406,25.278812408447266,-26.627132415771484,27.970420837402344,0.0
987,-2.90771484375,-2.7998046875,-3.916748046875,7.328244209289551,-7.267175674438477,4.702290058135986,-29.853910446166992,31.12963104248047,0.0,39.92405319213867,-36.89743423461914,25.302324295043945,-26.61583709716797,27.958906173706055,0.0
992,-2.90576171875,-2.799072265625,-3.915283203125,7.526717662811279,-7.465648651123047,5.14503812789917,-29.859310150146484,31.12111473083496,0.0,39.96168518066406,-36.93476104736328,25.328048706054688,-26.603633880615234,27.94637680053711,0.0
997,-2.90966796875,-2.801025390625,-3.925048828125,7.3740458488464355,-7.465648651123047,4.916030406951904,-29.825027465820312,31.10738182067871,0.0,39.99855422973633,-36.97208786010742,25.352628707885742,-26.59196662902832,27.933786392211914,0.0
1002,-2.90673828125,-2.802490234375,-3.919921875,7.5877861976623535,-7.358778476715088,4.809160232543945,-29.86765480041504,31.09930992126465,0.0,40.03649139404297,-37.008880615234375,25.37667465209961,-26.579607009887695,27.921710968017578,0.0
1007,-2.908935546875,-2.7978515625,-3.921142578125,7.541984558105469,-7.358778476715088,4.320610523223877,-29.81509017944336,31.12742042541504,0.0,40.07419967651367,-37.04567337036133,25.398277282714844,-26.567113876342773,27.909896850585938,0.0
1012,-2.91015625,-2.801025390625,-3.920166015625,7.5877861976623535,-7.221374034881592,4.977099418640137,-29.843406677246094,31.13253402709961,0.0,40.11213684082031,-37.08177947998047,25.42316246032715,-26.554656982421875,27.898847579956055,0.0
1017,-2.909912109375,-2.8017578125,-3.917724609375,7.3740458488464355,-7.251908302307129,4.671755790710449,-29.860546112060547,31.138620376586914,0.0,40.14900588989258,-37.118038177490234,25.446521759033203,-26.543437957763672,27.88772964477539,0.0
1022,-2.91455078125,-2.7978515625,-3.917236328125,7.206106662750244,-7.450381755828857,4.6259541511535645,-29.814010620117188,31.193096160888672,0.0,40.185035705566406,-37.15528869628906,25.46965217590332,-26.532733917236328,27.876079559326172,0.0
1027,-2.90771484375,-2.80517578125,-3.91796875,7.618320465087891,-7.618320465087891,4.931297779083252,-29.896366119384766,31.107959747314453,0.0,40.22312545776367,-37.19337844848633,25.494308471679688,-26.520648956298828,27.862985610961914,0.0
1032,-2.91162109375,-2.79931640625,-3.921875,7.893129825592041,-7.14503812789917,4.85496187210083,-29.81694984436035,31.143203735351562,0.0,40.26259231567383,-37.229103088378906,25.518583297729492,-26.506637573242188,27.852563858032227,0.0
1037,-2.907958984375,-2.802490234375,-3.926513671875,7.70992374420166,-7.41984748840332,4.732824325561523,-29.83714485168457,31.08176040649414,0.0,40.301143646240234,-37.26620101928711,25.542247772216797,-26.493749618530273,27.840341567993164,0.0
1042,-2.908447265625,-2.798828125,-3.92333984375,7.206106662750244,-7.526717662811279,4.671755790710449,-29.816255569458008,31.11077117919922,0.0,40.33717346191406,-37.3038330078125,25.56560707092285,-26.483253479003906,27.827857971191406,0.0
1048,-2.906982421875,-2.798583984375,-3.919677734375,7.160305500030518,-7.2366414070129395,4.885496139526367,-29.833412170410156,31.114429473876953,0.0,40.38013458251953,-37.347251892089844,25.594919204711914,-26.466108322143555,27.80977439880371,0.0
1053,-2.90771484375,-2.794677734375,-3.9248046875,7.633587837219238,-7.572519302368164,4.85496187210083,-29.775840759277344,31.11078453063965,0.0,40.41830062866211,-37.38511276245117,25.61919403076172,-26.453367233276367,27.797269821166992,0.0
1058,-2.9111328125,-2.799072265625,-3.927490234375,7.511450290679932,-7.389312744140625,5.007633686065674,-29.793458938598633,31.115652084350586,0.0,40.45585632324219,-37.42205810546875,25.64423179626465,-26.441417694091797,27.7857608795166,0.0
1063,-2.90771484375,-2.801025390625,-3.927001953125,7.358778476715088,-7.038167953491211,4.366412162780762,-29.822969436645508,31.082014083862305,0.0,40.49264907836914,-37.45724868774414,25.66606330871582,-26.43049430847168,27.77578353881836,0.0
1068,-2.908203125,-2.801025390625,-3.9208984375,7.572519302368164,-7.175572395324707,4.702290058135986,-29.846323013305664,31.11237907409668,0.0,40.53050994873047,-37.493125915527344,25.6895751953125,-26.418724060058594,27.765384674072266,0.0
1073,-2.90771484375,-2.798828125,-3.9189453125,7.3740458488464355,-7.267175674438477,4.717557430267334,-29.83633804321289,31.123207092285156,0.0,40.567378997802734,-37.52946090698242,25.713163375854492,-26.407907485961914,27.754648208618164,0.0
1078,-2.9091796875,-2.802001953125,-3.919921875,7.541984558105469,-7.282442569732666,4.7633585929870605,-29.85597038269043,31.12208366394043,0.0,40.60508728027344,-37.56587219238281,25.736980438232422,-26.396442413330078,27.743865966796875,0.0
1083,-2.906982421875,-2.798583984375,-3.919189453125,7.251908302307129,-7.129770755767822,4.671755790710449,-29.835399627685547,31.11652183532715,0.0,40.6413459777832,-37.60152053833008,25.760339736938477,-26.386306762695312,27.733837127685547,0.0
1088,-2.90625,-2.802734375,-3.91943359375,7.3740458488464355,-7.221374034881592,4.6259541511535645,-29.873273849487305,31.096393585205078,0.0,40.67821502685547,-37.63762664794922,25.783470153808594,-26.37588119506836,27.723236083984375,0.0
1093,-2.909423828125,-2.8046875,-3.925048828125,7.450381755828857,-7.541984558105469,4.748091697692871,-29.858074188232422,31.094074249267578,0.0,40.7154655456543,-37.67533493041992,25.80721092224121,-26.36499786376953,27.7110652923584,0.0
1098,-2.90771484375,-2.79931640625,-3.916748046875,7.755725383758545,-7.099236488342285,4.977099418640137,-29.849597930908203,31.131126403808594,0.0,40.75424575805664,-37.71083068847656,25.832096099853516,-26.352577209472656,27.701419830322266,0.0
1103,-2.906494140625,-2.801025390625,-3.920654296875,7.633587837219238,-7.312977313995361,4.977099418640137,-29.852476119995117,31.098526000976562,0.0,40.79241180419922,-37.74739456176758,25.85698127746582,-26.340835571289062,27.690500259399414,0.0
1108,-2.909912109375,-2.802001953125,-3.916259765625,7.14503812789917,-7.404580116271973,4.717557430267334,-29.868663787841797,31.144147872924805,0.0,40.8281364440918,-37.78441619873047,25.880569458007812,-26.33168601989746,27.679508209228516,0.0
1113,-2.908447265625,-2.80419921875,-3.916748046875,7.526717662811279,-7.007633686065674,4.916030406951904,-29.890504837036133,31.122556686401367,0.0,40.86576843261719,-37.819454193115234,25.905149459838867,-26.320831298828125,27.670368194580078,0.0
1118,-2.907958984375,-2.798583984375,-3.924560546875,7.206106662750244,-7.633587837219238,4.595419883728027,-29.81060791015625,31.102035522460938,0.0,40.901798248291016,-37.85762023925781,25.92812728881836,-26.31101417541504,27.657997131347656,0.0
1123,-2.9072265625,-2.80126953125,-3.9248046875,7.633587837219238,-7.251908302307129,4.870229244232178,-29.83553123474121,31.086410522460938,0.0,40.939964294433594,-37.89387893676758,25.952478408813477,-26.299293518066406,27.647459030151367,0.0
1129,-2.90869140625,-2.802734375,-3.92578125,7.6946563720703125,-7.389312744140625,4.473282337188721,-29.840072631835938,31.090526580810547,0.0,40.97843933105469,-37.930824279785156,25.974843978881836,-26.287351608276367,27.636308670043945,0.0
1134,-2.908203125,-2.796875,-3.919921875,7.5877861976623535,-7.14503812789917,5.053435325622559,-29.81363296508789,31.129253387451172,0.0,41.02396774291992,-37.97369384765625,26.005165100097656,-26.26833152770996,27.619678497314453,0.0
1139,-2.912353515625,-2.797607421875,-3.91796875,7.343511581420898,-7.068702220916748,4.931297779083252,-29.815515518188477,31.171560287475586,0.0,41.06068420410156,-38.009037017822266,26.029821395874023,-26.25817108154297,27.610918045043945,0.0
1144,-2.911376953125,-2.80322265625,-3.91796875,7.099236488342285,-7.41984748840332,4.732824325561523,-29.86805534362793,31.145851135253906,0.0,41.0961799621582,-38.04613494873047,26.053485870361328,-26.249649047851562,27.600250244140625,0.0
1149,-2.906982421875,-2.799072265625,-3.918212890625,7.43511438369751,-7.389312744140625,4.656488418579102,-29.84368896484375,31.119211196899414,0.0,41.13335418701172,-38.08308029174805,26.07676887512207,-26.239303588867188,27.589576721191406,0.0
1154,-2.910888671875,-2.800048828125,-3.9228515625,7.633587837219238,-7.206106662750244,4.717557430267334,-29.821657180786133,31.130401611328125,0.0,41.1715202331543,-38.119110107421875,26.100357055664062,-26.22784996032715,27.579938888549805,0.0
1159,-2.90771484375,-2.80126953125,-3.924560546875,7.4809160232543945,-7.72519063949585,4.793893337249756,-29.835052490234375,31.09170913696289,0.0,41.20892333984375,-38.157737731933594,26.124326705932617,-26.217300415039062,27.567474365234375,0.0
1164,-2.909912109375,-2.802978515625,-3.921142578125,7.541984558105469,-7.053435325622559,4.641221523284912,-29.857412338256836,31.12025260925293,0.0,41.24663162231445,-38.1930046081543,26.147533416748047,-26.20665168762207,27.558609008789062,0.0
1169,-2.90576171875,-2.799072265625,-3.922607421875,7.541984558105469,-7.70992374420166,4.717557430267334,-29.829484939575195,31.08974838256836,0.0,41.284339904785156,-38.2315559387207,26.17112159729004,-26.19584083557129,27.54629135131836,0.0
1174,-2.907958984375,-2.80126953125,-3.922607421875,7.465648651123047,-7.053435325622559,4.335877895355225,-29.842262268066406,31.102191925048828,0.0,41.3216667175293,-38.266822814941406,26.192800521850586,-26.185544967651367,27.537378311157227,0.0
1179,-2.9072265625,-2.80126953125,-3.91796875,7.832061290740967,-7.328244209289551,4.503816604614258,-29.86335563659668,31.11566162109375,0.0,41.3608283996582,-38.303462982177734,26.21531867980957,-26.173625946044922,27.52722930908203,0.0
1184,-2.9072265625,-2.801513671875,-3.9189453125,7.603053569793701,-7.221374034881592,4.885496139526367,-29.861534118652344,31.110733032226562,0.0,41.398841857910156,-38.339569091796875,26.23974609375,-26.16288185119629,27.517616271972656,0.0
1189,-2.91015625,-2.80029296875,-3.925537109375,7.511450290679932,-7.312977313995361,4.824427604675293,-29.815107345581055,31.11178207397461,0.0,41.436397552490234,-38.37613296508789,26.26386833190918,-26.15229606628418,27.507591247558594,0.0
1194,-2.910888671875,-2.798828125,-3.91845703125,7.648854732513428,-7.14503812789917,4.809160232543945,-29.8287410736084,31.152963638305664,0.0,41.47464370727539,-38.41185760498047,26.287914276123047,-26.141172409057617,27.498741149902344,0.0
1199,-2.91162109375,-2.798828125,-3.915771484375,7.2366414070129395,-7.603053569793701,4.900763511657715,-29.837448120117188,31.170862197875977,0.0,41.510826110839844,-38.44987106323242,26.31241798400879,-26.132205963134766,27.487777709960938,0.0
1204,-2.9091796875,-2.80078125,-3.91845703125,7.603053569793701,-7.450381755828857,4.458015441894531,-29.851154327392578,31.132089614868164,0.0,41.5488395690918,-38.48712158203125,26.334707260131836,-26.121551513671875,27.477336883544922,0.0
1210,-2.911376953125,-2.80517578125,-3.9189453125,7.160305500030518,-7.358778476715088,4.824427604675293,-29.881317138671875,31.13568878173828,0.0,41.58464050292969,-38.5239143371582,26.358829498291016,-26.113357543945312,27.46742057800293,0.0
1215,-2.910888671875,-2.798828125,-3.918701171875,7.129770755767822,-6.916030406951904,4.702290058135986,-29.827747344970703,31.15191650390625,0.0,41.627418518066406,-38.56541061401367,26.387042999267578,-26.09794807434082,27.453065872192383,0.0
1220,-2.90966796875,-2.80029296875,-3.919189453125,7.618320465087891,-7.160305500030518,4.610687255859375,-29.84238624572754,31.134702682495117,0.0,41.66550827026367,-38.60121154785156,26.410097122192383,-26.08737564086914,27.444311141967773,0.0
1225,-2.90869140625,-2.796630859375,-3.927001953125,7.847328186035156,-7.312977313995361,4.961832046508789,-29.781230926513672,31.103923797607422,0.0,41.70474624633789,-38.63777542114258,26.434906005859375,-26.075265884399414,27.43460464477539,0.0
1230,-2.911376953125,-2.802734375,-3.9228515625,7.755725383758545,-7.404580116271973,4.473282337188721,-29.843887329101562,31.126445770263672,0.0,41.743526458740234,-38.67479705810547,26.457271575927734,-26.06412124633789,27.424644470214844,0.0
1235,-2.909423828125,-2.802001953125,-3.919921875,7.618320465087891,-7.206106662750244,4.732824325561523,-29.855234146118164,31.124210357666016,0.0,41.7816162109375,-38.7108268737793,26.48093605041504,-26.053789138793945,27.415695190429688,0.0
1240,-2.9091796875,-2.800537109375,-3.92578125,7.450381755828857,-6.85496187210083,4.335877895355225,-29.819211959838867,31.101486206054688,0.0,41.81886672973633,-38.74510192871094,26.502614974975586,-26.0440731048584,27.408357620239258,0.0
1245,-2.911376953125,-2.80224609375,-3.915283203125,7.2366414070129395,-7.221374034881592,4.534351348876953,-29.870361328125,31.16034698486328,0.0,41.85504913330078,-38.78120803833008,26.525287628173828,-26.03582763671875,27.39965057373047,0.0
1250,-2.908447265625,-2.802490234375,-3.92333984375,7.526717662811279,-7.572519302368164,4.946564674377441,-29.84858512878418,31.099584579467773,0.0,41.89268112182617,-38.819068908691406,26.550020217895508,-26.026012420654297,27.388792037963867,0.0
1255,-2.9052734375,-2.805908203125,-3.924072265625,7.5877861976623535,-7.083969593048096,4.503816604614258,-29.88533592224121,31.05835723876953,0.0,41.93061828613281,-38.854488372802734,26.572538375854492,-26.016199111938477,27.380109786987305,0.0
1260,-2.906005859375,-2.79736328125,-3.926025390625,7.5877861976623535,-7.41984748840332,4.809160232543945,-29.79974937438965,31.08246612548828,0.0,41.96855545043945,-38.89158630371094,26.59658432006836,-26.005807876586914,27.369966506958008,0.0
1265,-2.90771484375,-2.79638671875,-3.921142578125,7.832061290740967,-7.679389476776123,4.793893337249756,-29.80582618713379,31.121257781982422,0.0,42.00771713256836,-38.92998504638672,26.620553970336914,-25.994295120239258,27.35886001586914,0.0
1270,-2.9072265625,-2.80126953125,-3.92333984375,7.648854732513428,-7.022900581359863,4.870229244232178,-29.84149169921875,31.092676162719727,0.0,42.045963287353516,-38.9650993347168,26.64490509033203,-25.98400115966797,27.35085678100586,0.0
1275,-2.906494140625,-2.79833984375,-3.92431640625,7.572519302368164,-6.900763511657715,4.671755790710449,-29.81385612487793,31.09105682373047,0.0,42.083824157714844,-38.999603271484375,26.668264389038086,-25.97393035888672,27.343477249145508,0.0
1280,-2.904541015625,-2.79833984375,-3.9130859375,7.343511581420898,-7.251908302307129,4.641221523284912,-29.8654842376709,31.12212371826172,0.0,42.120540618896484,-39.03586196899414,26.691471099853516,-25.965410232543945,27.334604263305664,0.0
1285,-2.90869140625,-2.7958984375,-3.926513671875,7.4809160232543945,-7.3740458488464355,4.778625965118408,-29.776744842529297,31.108247756958008,0.0,42.15794372558594,-39.072731018066406,26.715364456176758,-25.955604553222656,27.325057983398438,0.0
1291,-2.90869140625,-2.802001953125,-3.92529296875,7.297709941864014,-7.679389476776123,4.885496139526367,-29.835596084594727,31.094850540161133,0.0,42.19443130493164,-39.11112976074219,26.739791870117188,-25.947172164916992,27.313941955566406,0.0
1296,-2.906005859375,-2.799072265625,-3.91357421875,7.572519302368164,-7.3740458488464355,4.946564674377441,-29.865535736083984,31.13056755065918,0.0,42.2398681640625,-39.155372619628906,26.769472122192383,-25.9301815032959,27.29740333557129,0.0
1301,-2.911376953125,-2.8017578125,-3.9140625,7.297709941864014,-7.541984558105469,4.839694499969482,-29.871017456054688,31.167076110839844,0.0,42.2763557434082,-39.19308090209961,26.793670654296875,-25.922203063964844,27.287704467773438,0.0
1306,-2.90478515625,-2.796630859375,-3.919677734375,7.4809160232543945,-7.129770755767822,4.656488418579102,-29.82278060913086,31.10123634338379,0.0,42.313758850097656,-39.228729248046875,26.816953659057617,-25.913000106811523,27.279621124267578,0.0
1311,-2.909912109375,-2.802490234375,-3.915283203125,7.2366414070129395,-7.114503860473633,4.4122138023376465,-29.876951217651367,31.146833419799805,0.0,42.34994125366211,-39.26430130004883,26.839014053344727,-25.90543556213379,27.271970748901367,0.0
1316,-2.908447265625,-2.8017578125,-3.921630859375,7.755725383758545,-7.2366414070129395,4.458015441894531,-29.84907341003418,31.109132766723633,0.0,42.38872146606445,-39.30048370361328,26.861303329467773,-25.89512062072754,27.263471603393555,0.0
1321,-2.911376953125,-2.798095703125,-3.9208984375,7.43511438369751,-7.389312744140625,4.7633585929870605,-29.810874938964844,31.14899444580078,0.0,42.42589569091797,-39.33742904663086,26.885120391845703,-25.88616943359375,27.254531860351562,0.0
1326,-2.912841796875,-2.80224609375,-3.927734375,7.343511581420898,-6.85496187210083,4.702290058135986,-29.815326690673828,31.119800567626953,0.0,42.46261215209961,-39.3717041015625,26.908632278442383,-25.877742767333984,27.24807357788086,0.0
1331,-2.90625,-2.801513671875,-3.91357421875,7.2366414070129395,-7.511450290679932,4.213740348815918,-29.886371612548828,31.125213623046875,0.0,42.49879455566406,-39.40925979614258,26.92970085144043,-25.87038803100586,27.238414764404297,0.0
1336,-2.9091796875,-2.8037109375,-3.92529296875,7.251908302307129,-7.541984558105469,5.007633686065674,-29.84920310974121,31.09388542175293,0.0,42.53505325317383,-39.44696807861328,26.95473861694336,-25.862716674804688,27.228424072265625,0.0
1341,-2.912841796875,-2.799560546875,-3.921142578125,7.282442569732666,-7.221374034881592,4.458015441894531,-29.81839942932129,31.156227111816406,0.0,42.57146453857422,-39.48307418823242,26.977027893066406,-25.854703903198242,27.220516204833984,0.0
1346,-2.907470703125,-2.79931640625,-3.916748046875,7.72519063949585,-7.603053569793701,4.687022686004639,-29.85033416748047,31.128997802734375,0.0,42.61009216308594,-39.521087646484375,27.000463485717773,-25.844751358032227,27.21055030822754,0.0
1351,-2.907470703125,-2.798095703125,-3.9169921875,7.4809160232543945,-7.404580116271973,4.610687255859375,-29.83855438232422,31.131689071655273,0.0,42.64749526977539,-39.558109283447266,27.023517608642578,-25.83597183227539,27.20163345336914,0.0
1356,-2.90869140625,-2.796875,-3.919189453125,7.160305500030518,-7.114503860473633,4.58015251159668,-29.81513786315918,31.13665008544922,0.0,42.68329620361328,-39.59368133544922,27.046419143676758,-25.828655242919922,27.194231033325195,0.0
1361,-2.9091796875,-2.801025390625,-3.927490234375,7.4809160232543945,-6.641221523284912,4.549618244171143,-29.816574096679688,31.09268569946289,0.0,42.720699310302734,-39.626888275146484,27.069168090820312,-25.81978416442871,27.188894271850586,0.0
1366,-2.9072265625,-2.79931640625,-3.92236328125,7.389312744140625,-7.160305500030518,5.083969593048096,-29.828218460083008,31.102821350097656,0.0,42.75764465332031,-39.662689208984375,27.094587326049805,-25.811487197875977,27.181066513061523,0.0
1371,-2.9091796875,-2.798095703125,-3.91943359375,7.572519302368164,-7.496183395385742,4.549618244171143,-29.82345962524414,31.136125564575195,0.0,42.79550552368164,-39.70016860961914,27.11733627319336,-25.802282333374023,27.171838760375977,0.0
1377,-2.905517578125,-2.80078125,-3.915771484375,7.129770755767822,-7.297709941864014,4.641221523284912,-29.87316131591797,31.111658096313477,0.0,42.83828353881836,-39.743953704833984,27.145183563232422,-25.78866958618164,27.156295776367188,0.0
1382,-2.911376953125,-2.802490234375,-3.91064453125,7.679389476776123,-7.404580116271973,4.4122138023376465,-29.891403198242188,31.179479598999023,0.0,42.87668228149414,-39.780975341796875,27.16724395751953,-25.77960777282715,27.148033142089844,0.0
1387,-2.907470703125,-2.800048828125,-3.9248046875,7.083969593048096,-7.190839767456055,4.6259541511535645,-29.824020385742188,31.09226417541504,0.0,42.91210174560547,-39.81692886352539,27.19037437438965,-25.77306365966797,27.14025115966797,0.0
1392,-2.908935546875,-2.79736328125,-3.92236328125,7.14503812789917,-7.312977313995361,4.717557430267334,-29.80581283569336,31.12368392944336,0.0,42.94782638549805,-39.853492736816406,27.21396255493164,-25.766111373901367,27.13211441040039,0.0
1397,-2.906982421875,-2.798583984375,-3.92724609375,7.312977313995361,-7.160305500030518,4.595419883728027,-29.802629470825195,31.08203125,0.0,42.98439025878906,-39.8892936706543,27.236940383911133,-25.758325576782227,27.12447738647461,0.0
1402,-2.907958984375,-2.801025390625,-3.91796875,7.526717662811279,-7.343511581420898,4.6259541511535645,-29.858985900878906,31.12279510498047,0.0,43.02202224731445,-39.92601013183594,27.26007080078125,-25.749908447265625,27.116247177124023,0.0
1407,-2.9111328125,-2.799072265625,-3.92236328125,7.526717662811279,-7.404580116271973,4.595419883728027,-29.81428337097168,31.137605667114258,0.0,43.059654235839844,-39.96303176879883,27.283048629760742,-25.741212844848633,27.107852935791016,0.0
1412,-2.909912109375,-2.797119140625,-3.916748046875,7.5877861976623535,-7.038167953491211,4.946564674377441,-29.82353973388672,31.157014846801758,0.0,43.097591400146484,-39.99822235107422,27.307781219482422,-25.732316970825195,27.101451873779297,0.0
1417,-2.904296875,-2.800048828125,-3.924072265625,7.603053569793701,-7.358778476715088,4.58015251159668,-29.836563110351562,31.06772804260254,0.0,43.13560485839844,-40.03501510620117,27.3306827545166,-25.72347640991211,27.092851638793945,0.0
1422,-2.908935546875,-2.80322265625,-3.923095703125,7.404580116271973,-7.190839767456055,4.85496187210083,-29.854568481445312,31.102645874023438,0.0,43.17262649536133,-40.07096862792969,27.354957580566406,-25.715787887573242,27.085372924804688,0.0
1427,-2.9072265625,-2.801513671875,-3.9248046875,7.267175674438477,-7.389312744140625,4.595419883728027,-29.83768653869629,31.08566665649414,0.0,43.208961486816406,-40.107913970947266,27.3779354095459,-25.708696365356445,27.076818466186523,0.0
1432,-2.9111328125,-2.800537109375,-3.9130859375,7.358778476715088,-7.3740458488464355,4.732824325561523,-29.86495018005371,31.172880172729492,0.0,43.24575424194336,-40.14478302001953,27.401599884033203,-25.70136833190918,27.06899070739746,0.0
1437,-2.912841796875,-2.8017578125,-3.921875,7.328244209289551,-7.618320465087891,4.58015251159668,-29.83481788635254,31.1463680267334,0.0,43.28239440917969,-40.1828727722168,27.424501419067383,-25.69400978088379,27.059799194335938,0.0
1442,-2.91064453125,-2.798095703125,-3.92138671875,7.4809160232543945,-7.328244209289551,4.732824325561523,-29.811100006103516,31.140520095825195,0.0,43.31979751586914,-40.219512939453125,27.448165893554688,-25.68575668334961,27.052047729492188,0.0
1447,-2.90673828125,-2.802978515625,-3.919189453125,7.648854732513428,-6.839694499969482,4.85496187210083,-29.874948501586914,31.100950241088867,0.0,43.3580436706543,-40.25371170043945,27.472440719604492,-25.677154541015625,27.046480178833008,0.0
1452,-2.908203125,-2.799072265625,-3.923828125,7.358778476715088,-6.992366313934326,4.809160232543945,-29.817161560058594,31.10580825805664,0.0,43.39483642578125,-40.288673400878906,27.49648666381836,-25.669626235961914,27.040206909179688,0.0
1458,-2.91162109375,-2.79931640625,-3.923828125,7.43511438369751,-7.4809160232543945,4.992366313934326,-29.80901527404785,31.134838104248047,0.0,43.43944549560547,-40.33355712890625,27.52644157409668,-25.65439224243164,27.024385452270508,0.0
1463,-2.9072265625,-2.802734375,-3.919921875,7.511450290679932,-7.206106662750244,4.946564674377441,-29.868335723876953,31.102819442749023,0.0,43.47700119018555,-40.36958694458008,27.55117416381836,-25.646663665771484,27.017223358154297,0.0
1468,-2.906982421875,-2.801025390625,-3.916259765625,7.41984748840332,-7.114503860473633,4.687022686004639,-29.868898391723633,31.121597290039062,0.0,43.51409912109375,-40.40515899658203,27.574609756469727,-25.639427185058594,27.010677337646484,0.0
1473,-2.908935546875,-2.798095703125,-3.924560546875,7.541984558105469,-7.572519302368164,4.85496187210083,-29.803354263305664,31.112035751342773,0.0,43.55180740356445,-40.44301986694336,27.59888458251953,-25.631153106689453,27.001813888549805,0.0
1478,-2.90869140625,-2.80126953125,-3.9189453125,7.5877861976623535,-7.404580116271973,4.473282337188721,-29.85495376586914,31.124248504638672,0.0,43.589744567871094,-40.48004150390625,27.62125015258789,-25.623050689697266,26.993911743164062,0.0
1483,-2.91015625,-2.80126953125,-3.921630859375,7.572519302368164,-7.221374034881592,4.732824325561523,-29.8396053314209,31.125516891479492,0.0,43.62760543823242,-40.51614761352539,27.644914627075195,-25.614953994750977,26.98696517944336,0.0
1488,-2.906982421875,-2.79931640625,-3.914794921875,7.572519302368164,-7.328244209289551,4.56488561630249,-29.859766006469727,31.13311004638672,0.0,43.66546630859375,-40.55278778076172,27.667739868164062,-25.607032775878906,26.97956657409668,0.0
1493,-2.913330078125,-2.80322265625,-3.92822265625,7.450381755828857,-7.465648651123047,4.732824325561523,-29.82048797607422,31.118982315063477,0.0,43.70271682739258,-40.59011459350586,27.691404342651367,-25.59947967529297,26.971420288085938,0.0
1498,-2.910888671875,-2.799560546875,-3.92041015625,7.603053569793701,-7.572519302368164,4.687022686004639,-29.827268600463867,31.142351150512695,0.0,43.74073028564453,-40.62797546386719,27.714839935302734,-25.591249465942383,26.96294403076172,0.0
1503,-2.913330078125,-2.7978515625,-3.918212890625,7.4809160232543945,-7.190839767456055,4.931297779083252,-29.81373405456543,31.178272247314453,0.0,43.778133392333984,-40.6639289855957,27.7394962310791,-25.583568572998047,26.956653594970703,0.0
1508,-2.90869140625,-2.796630859375,-3.92626953125,7.511450290679932,-7.267175674438477,4.396946430206299,-29.78420639038086,31.107059478759766,0.0,43.81568908691406,-40.70026397705078,27.7614803314209,-25.575563430786133,26.949512481689453,0.0
1513,-2.911865234375,-2.80078125,-3.923583984375,7.3740458488464355,-7.099236488342285,4.809160232543945,-29.822202682495117,31.133533477783203,0.0,43.85255813598633,-40.73575973510742,27.785526275634766,-25.56854248046875,26.94342041015625,0.0
1518,-2.910888671875,-2.7998046875,-3.924072265625,7.4809160232543945,-7.343511581420898,4.534351348876953,-29.814542770385742,31.12592124938965,0.0,43.88996124267578,-40.77247619628906,27.808198928833008,-25.56096839904785,26.936084747314453,0.0
1523,-2.90673828125,-2.801025390625,-3.921875,7.43511438369751,-7.190839767456055,4.503816604614258,-29.846769332885742,31.09543228149414,0.0,43.9271354675293,-40.80842971801758,27.830717086791992,-25.553878784179688,26.929330825805664,0.0
1528,-2.910400390625,-2.803466796875,-3.919189453125,6.900763511657715,-7.190839767456055,4.717557430267334,-29.868194580078125,31.131370544433594,0.0,43.961639404296875,-40.844383239746094,27.854305267333984,-25.549623489379883,26.922855377197266,0.0
1533,-2.90673828125,-2.79931640625,-3.91455078125,7.496183395385742,-7.251908302307129,5.038167953491211,-29.86149787902832,31.13202667236328,0.0,43.99911880493164,-40.88064193725586,27.87949562072754,-25.542375564575195,26.916109085083008,0.0
1539,-2.911376953125,-2.800537109375,-3.92138671875,7.618320465087891,-7.633587837219238,5.068702220916748,-29.830448150634766,31.139434814453125,0.0,44.044830322265625,-40.92644500732422,27.909908294677734,-25.526857376098633,26.900049209594727,0.0
1544,-2.908203125,-2.8056640625,-3.922119140625,7.5877861976623535,-7.496183395385742,4.916030406951904,-29.882295608520508,31.092975616455078,0.0,44.082767486572266,-40.963924407958984,27.93448829650879,-25.519506454467773,26.89202117919922,0.0
1549,-2.91015625,-2.8017578125,-3.919677734375,7.847328186035156,-7.41984748840332,4.702290058135986,-29.85186004638672,31.13238525390625,0.0,44.122005462646484,-41.00102233886719,27.95800018310547,-25.51068687438965,26.88468360900879,0.0
1554,-2.9072265625,-2.798828125,-3.9189453125,7.572519302368164,-7.618320465087891,4.961832046508789,-29.837812423706055,31.11894989013672,0.0,44.15986633300781,-41.03911209106445,27.98280906677246,-25.503175735473633,26.876300811767578,0.0
1559,-2.908203125,-2.79931640625,-3.922119140625,7.465648651123047,-7.450381755828857,4.473282337188721,-29.82626724243164,31.112377166748047,0.0,44.19719314575195,-41.07636260986328,28.00517463684082,-25.49614906311035,26.868745803833008,0.0
1564,-2.9111328125,-2.80078125,-3.920166015625,7.41984748840332,-7.389312744140625,4.748091697692871,-29.838302612304688,31.14179039001465,0.0,44.234291076660156,-41.11330795288086,28.028915405273438,-25.489463806152344,26.861732482910156,0.0
1569,-2.908447265625,-2.7998046875,-3.9130859375,7.328244209289551,-7.450381755828857,4.961832046508789,-29.866607666015625,31.151714324951172,0.0,44.270931243896484,-41.15055847167969,28.05372428894043,-25.48345947265625,26.854516983032227,0.0
1574,-2.907958984375,-2.7978515625,-3.92431640625,7.526717662811279,-7.175572395324707,4.488549709320068,-29.805131912231445,31.105316162109375,0.0,44.308563232421875,-41.18643569946289,28.0761661529541,-25.47606658935547,26.848377227783203,0.0
1579,-2.9052734375,-2.80029296875,-3.920654296875,7.541984558105469,-7.328244209289551,4.900763511657715,-29.84969139099121,31.090120315551758,0.0,44.34627151489258,-41.22307586669922,28.100669860839844,-25.46894073486328,26.841398239135742,0.0
1584,-2.910400390625,-2.801513671875,-3.92236328125,7.511450290679932,-7.083969593048096,4.6259541511535645,-29.838045120239258,31.123762130737305,0.0,44.383827209472656,-41.25849533081055,28.12380027770996,-25.461917877197266,26.83589744567871,0.0
1589,-2.912109375,-2.79931640625,-3.91845703125,7.557251930236816,-7.4809160232543945,4.748091697692871,-29.82936668395996,31.1621036529541,0.0,44.42161178588867,-41.2958984375,28.147541046142578,-25.454639434814453,26.828712463378906,0.0
1594,-2.906005859375,-2.796875,-3.920166015625,7.41984748840332,-7.43511438369751,4.610687255859375,-29.81926918029785,31.109046936035156,0.0,44.458709716796875,-41.333072662353516,28.170595169067383,-25.448007583618164,26.821420669555664,0.0
1599,-2.910400390625,-2.80224609375,-3.919921875,7.618320465087891,-7.450381755828857,4.56488561630249,-29.85443878173828,31.13197135925293,0.0,44.49679946899414,-41.370323181152344,28.19342041015625,-25.440662384033203,26.814245223999023,0.0
1604,-2.912109375,-2.799560546875,-3.917236328125,7.3740458488464355,-7.572519302368164,4.549618244171143,-29.836484909057617,31.166589736938477,0.0,44.533668518066406,-41.40818405151367,28.216169357299805,-25.43444061279297,26.806737899780273,0.0
1609,-2.90771484375,-2.796630859375,-3.9306640625,7.572519302368164,-7.282442569732666,4.610687255859375,-29.76929473876953,31.079740524291992,0.0,44.571529388427734,-41.44459533691406,28.23922348022461,-25.426795959472656,26.800107955932617,0.0
1614,-2.904541015625,-2.802978515625,-3.921630859375,7.450381755828857,-7.14503812789917,4.977099418640137,-29.87163734436035,31.07135009765625,0.0,44.60877990722656,-41.48031997680664,28.264108657836914,-25.420501708984375,26.794132232666016,0.0
1620,-2.905029296875,-2.799072265625,-3.919677734375,7.328244209289551,-7.068702220916748,4.85496187210083,-29.8436222076416,31.095901489257812,0.0,44.652748107910156,-41.52273178100586,28.293237686157227,-25.407455444335938,26.78179359436035,0.0
1625,-2.907958984375,-2.801025390625,-3.927978515625,7.541984558105469,-7.5877861976623535,4.427480697631836,-29.81826400756836,31.079965591430664,0.0,44.69045639038086,-41.5606689453125,28.31537437438965,-25.400524139404297,26.773855209350586,0.0
1630,-2.9091796875,-2.803955078125,-3.925537109375,7.358778476715088,-6.916030406951904,4.870229244232178,-29.85036277770996,31.092098236083984,0.0,44.72724914550781,-41.59524917602539,28.339725494384766,-25.394756317138672,26.769376754760742,0.0
1635,-2.909423828125,-2.80029296875,-3.92138671875,7.450381755828857,-6.946564674377441,4.885496139526367,-29.834186553955078,31.123167037963867,0.0,44.76449966430664,-41.629981994628906,28.364152908325195,-25.388444900512695,26.764976501464844,0.0
1640,-2.9091796875,-2.79833984375,-3.916748046875,7.496183395385742,-7.282442569732666,4.961832046508789,-29.8365421295166,31.14689064025879,0.0,44.801979064941406,-41.6663932800293,28.388961791992188,-25.38195037841797,26.75908660888672,0.0
1645,-2.90869140625,-2.799072265625,-3.9169921875,7.160305500030518,-7.541984558105469,4.977099418640137,-29.843494415283203,31.13934326171875,0.0,44.8377799987793,-41.7041015625,28.413846969604492,-25.377201080322266,26.751880645751953,0.0
1650,-2.90869140625,-2.799560546875,-3.921142578125,7.206106662750244,-7.297709941864014,4.488549709320068,-29.830921173095703,31.120067596435547,0.0,44.873809814453125,-41.7405891418457,28.436288833618164,-25.372154235839844,26.745786666870117,0.0
1655,-2.907958984375,-2.800048828125,-3.914794921875,7.511450290679932,-7.526717662811279,4.702290058135986,-29.863283157348633,31.139381408691406,0.0,44.9113655090332,-41.778221130371094,28.459800720214844,-25.365833282470703,26.73871612548828,0.0
1660,-2.907470703125,-2.800537109375,-3.9228515625,7.4809160232543945,-7.129770755767822,5.038167953491211,-29.836275100708008,31.099130630493164,0.0,44.948768615722656,-41.81386947631836,28.4849910736084,-25.35950469970703,26.733373641967773,0.0
1665,-2.908447265625,-2.798828125,-3.926513671875,7.4809160232543945,-7.557251930236816,4.793893337249756,-29.803354263305664,31.097185134887695,0.0,44.98617172241211,-41.851654052734375,28.508960723876953,-25.352977752685547,26.72591781616211,0.0
1670,-2.905029296875,-2.798828125,-3.91552734375,7.511450290679932,-7.328244209289551,4.916030406951904,-29.85837173461914,31.114425659179688,0.0,45.02372741699219,-41.8882942199707,28.533540725708008,-25.346708297729492,26.71975326538086,0.0
1675,-2.907470703125,-2.800537109375,-3.927001953125,7.41984748840332,-7.206106662750244,4.809160232543945,-29.819395065307617,31.081375122070312,0.0,45.06082534790039,-41.92432403564453,28.557586669921875,-25.340654373168945,26.71399688720703,0.0
1680,-2.913330078125,-2.794921875,-3.9169921875,7.648854732513428,-7.038167953491211,4.671755790710449,-29.792800903320312,31.192487716674805,0.0,45.09907150268555,-41.95951461791992,28.58094596862793,-25.33330726623535,26.709863662719727,0.0
1685,-2.90771484375,-2.800537109375,-3.921630859375,7.648854732513428,-7.3740458488464355,4.732824325561523,-29.840505599975586,31.106481552124023,0.0,45.1373176574707,-41.99638366699219,28.604610443115234,-25.326324462890625,26.7034854888916,0.0
1690,-2.904052734375,-2.79541015625,-3.921875,7.3740458488464355,-7.41984748840332,4.778625965118408,-29.805255889892578,31.089162826538086,0.0,45.17418670654297,-42.03348159790039,28.628503799438477,-25.320497512817383,26.69679069519043,0.0
1695,-2.91162109375,-2.7998046875,-3.914306640625,6.931297779083252,-7.083969593048096,4.641221523284912,-29.852033615112305,31.174148559570312,0.0,45.20884323120117,-42.06890106201172,28.651710510253906,-25.317216873168945,26.692380905151367,0.0
1701,-2.908935546875,-2.800537109375,-3.91259765625,7.312977313995361,-7.664122104644775,4.717557430267334,-29.87359046936035,31.15581703186035,0.0,45.24540710449219,-42.10722351074219,28.6752986907959,-25.312196731567383,26.684980392456055,0.0
1706,-2.9072265625,-2.80126953125,-3.922607421875,7.4809160232543945,-7.389312744140625,4.717557430267334,-29.844470977783203,31.095809936523438,0.0,45.29029083251953,-42.15155792236328,28.703603744506836,-25.2988224029541,26.671316146850586,0.0
1711,-2.9091796875,-2.79931640625,-3.9208984375,7.465648651123047,-7.358778476715088,4.396946430206299,-29.828285217285156,31.126115798950195,0.0,45.32761764526367,-42.188350677490234,28.725587844848633,-25.292919158935547,26.665430068969727,0.0
1716,-2.90576171875,-2.80078125,-3.920166015625,7.816793918609619,-7.14503812789917,4.656488418579102,-29.85451889038086,31.094974517822266,0.0,45.366703033447266,-42.22407531738281,28.748870849609375,-25.285480499267578,26.660419464111328,0.0
1721,-2.90673828125,-2.800537109375,-3.925048828125,7.557251930236816,-7.328244209289551,4.458015441894531,-29.829544067382812,31.08334732055664,0.0,45.40448760986328,-42.26071548461914,28.771160125732422,-25.279193878173828,26.654438018798828,0.0
1726,-2.9091796875,-2.8017578125,-3.9248046875,7.572519302368164,-7.3740458488464355,4.946564674377441,-29.833955764770508,31.10193634033203,0.0,45.44234848022461,-42.297584533691406,28.7958927154541,-25.272891998291016,26.64838409423828,0.0
1731,-2.9072265625,-2.79833984375,-3.92138671875,7.43511438369751,-7.603053569793701,4.748091697692871,-29.823564529418945,31.1099853515625,0.0,45.479522705078125,-42.33559799194336,28.81963348388672,-25.267229080200195,26.64127540588379,0.0
1736,-2.90869140625,-2.8017578125,-3.918212890625,7.343511581420898,-7.541984558105469,4.549618244171143,-29.862247467041016,31.125890731811523,0.0,45.516239166259766,-42.37330627441406,28.842382431030273,-25.262311935424805,26.634614944458008,0.0
1741,-2.908447265625,-2.800048828125,-3.9208984375,7.312977313995361,-7.282442569732666,5.038167953491211,-29.836963653564453,31.11749267578125,0.0,45.55280303955078,-42.40971755981445,28.867572784423828,-25.25739288330078,26.62921905517578,0.0
1746,-2.9091796875,-2.800537109375,-3.91650390625,7.41984748840332,-7.618320465087891,4.793893337249756,-29.85694694519043,31.141204833984375,0.0,45.589900970458984,-42.44780731201172,28.891542434692383,-25.252099990844727,26.62234115600586,0.0
1751,-2.9111328125,-2.800537109375,-3.916748046875,7.297709941864014,-6.977099418640137,4.56488561630249,-29.850048065185547,31.157182693481445,0.0,45.62638854980469,-42.48269271850586,28.91436767578125,-25.24738883972168,26.618791580200195,0.0
1756,-2.91015625,-2.801025390625,-3.91943359375,7.5877861976623535,-7.603053569793701,4.732824325561523,-29.846385955810547,31.135671615600586,0.0,45.66432571411133,-42.52070617675781,28.938032150268555,-25.24123191833496,26.611995697021484,0.0
1761,-2.909912109375,-2.802734375,-3.919921875,7.404580116271973,-7.068702220916748,4.656488418579102,-29.8602237701416,31.126224517822266,0.0,45.70134735107422,-42.55604934692383,28.961315155029297,-25.236108779907227,26.607824325561523,0.0
1766,-2.910400390625,-2.7998046875,-3.91943359375,7.557251930236816,-7.328244209289551,4.946564674377441,-29.834869384765625,31.14153480529785,0.0,45.739131927490234,-42.592689514160156,28.986047744750977,-25.23007583618164,26.602481842041016,0.0
1771,-2.911865234375,-2.7978515625,-3.918701171875,7.679389476776123,-7.160305500030518,5.007633686065674,-29.816171646118164,31.163415908813477,0.0,45.777530670166016,-42.62849044799805,29.011085510253906,-25.223337173461914,26.5981502532959,0.0
1776,-2.909912109375,-2.7998046875,-3.9189453125,7.282442569732666,-7.679389476776123,4.946564674377441,-29.838329315185547,31.139371871948242,0.0,45.813941955566406,-42.66688919067383,29.035818099975586,-25.2187557220459,26.591093063354492,0.0
1782,-2.91064453125,-2.797607421875,-3.91845703125,7.41984748840332,-7.328244209289551,4.687022686004639,-29.81869125366211,31.154573440551758,0.0,45.85103988647461,-42.703529357910156,29.059253692626953,-25.213375091552734,26.585918426513672,0.0
1787,-2.910888671875,-2.79833984375,-3.922119140625,7.267175674438477,-7.664122104644775,4.473282337188721,-29.80954360961914,31.138763427734375,0.0,45.8946418762207,-42.749515533447266,29.08609390258789,-25.201587677001953,26.571468353271484,0.0
1792,-2.907958984375,-2.80029296875,-3.927734375,7.603053569793701,-7.389312744140625,4.946564674377441,-29.81279182434082,31.083242416381836,0.0,45.932655334472656,-42.786460876464844,29.11082649230957,-25.1954402923584,26.565698623657227,0.0
1797,-2.905517578125,-2.79833984375,-3.91845703125,7.679389476776123,-7.083969593048096,4.381679534912109,-29.840646743774414,31.107627868652344,0.0,45.97105407714844,-42.82188034057617,29.132734298706055,-25.189132690429688,26.5616397857666,0.0
1802,-2.9091796875,-2.797119140625,-3.9169921875,7.2366414070129395,-7.389312744140625,4.870229244232178,-29.824758529663086,31.149581909179688,0.0,46.00723648071289,-42.85882568359375,29.157085418701172,-25.184946060180664,26.556365966796875,0.0
1807,-2.9111328125,-2.80224609375,-3.919677734375,7.099236488342285,-7.2366414070129395,4.717557430267334,-29.853219985961914,31.1393985748291,0.0,46.04273223876953,-42.8950080871582,29.180673599243164,-25.181652069091797,26.55180549621582,0.0
1812,-2.907958984375,-2.79931640625,-3.920654296875,7.343511581420898,-7.526717662811279,5.022900581359863,-29.832962036132812,31.11652183532715,0.0,46.07944869995117,-42.932640075683594,29.205787658691406,-25.17701530456543,26.545665740966797,0.0
1817,-2.908203125,-2.800537109375,-3.91259765625,7.038167953491211,-7.557251930236816,4.717557430267334,-29.875808715820312,31.149431228637695,0.0,46.11463928222656,-42.97042465209961,29.2293758392334,-25.17420768737793,26.539630889892578,0.0
1822,-2.908935546875,-2.798095703125,-3.924560546875,7.465648651123047,-7.160305500030518,4.549618244171143,-29.803354263305664,31.112035751342773,0.0,46.1519660949707,-43.0062255859375,29.252124786376953,-25.168787002563477,26.535341262817383,0.0
1827,-2.908447265625,-2.797119140625,-3.920654296875,7.664122104644775,-7.465648651123047,4.656488418579102,-29.812074661254883,31.12749671936035,0.0,46.19028854370117,-43.04355239868164,29.275407791137695,-25.162466049194336,26.5296573638916,0.0
1832,-2.91064453125,-2.803955078125,-3.91748046875,7.404580116271973,-7.267175674438477,5.083969593048096,-29.878721237182617,31.139318466186523,0.0,46.22731018066406,-43.07988739013672,29.300827026367188,-25.157920837402344,26.525066375732422,0.0
1837,-2.907958984375,-2.7998046875,-3.919189453125,7.404580116271973,-7.603053569793701,4.992366313934326,-29.84323501586914,31.121301651000977,0.0,46.26433181762695,-43.11790084838867,29.325788497924805,-25.153152465820312,26.51870346069336,0.0
1842,-2.906494140625,-2.799560546875,-3.918701171875,7.526717662811279,-7.038167953491211,5.053435325622559,-29.847490310668945,31.111366271972656,0.0,46.301963806152344,-43.15309143066406,29.351055145263672,-25.1478271484375,26.51511001586914,0.0
1847,-2.90869140625,-2.80126953125,-3.924072265625,7.755725383758545,-7.465648651123047,4.687022686004639,-29.834095001220703,31.10230827331543,0.0,46.34074401855469,-43.1904182434082,29.37449073791504,-25.141298294067383,26.50934410095215,0.0
1852,-2.906494140625,-2.800537109375,-3.918701171875,7.70992374420166,-7.496183395385742,4.870229244232178,-29.856117248535156,31.10837745666504,0.0,46.379295349121094,-43.22789764404297,29.398841857910156,-25.13517951965332,26.503496170043945,0.0
1857,-2.908203125,-2.798583984375,-3.915771484375,7.450381755828857,-7.4809160232543945,4.748091697692871,-29.845624923706055,31.141813278198242,0.0,46.41654586791992,-43.26530075073242,29.422582626342773,-25.130308151245117,26.497982025146484,0.0
1863,-2.911865234375,-2.7998046875,-3.921142578125,7.526717662811279,-7.068702220916748,4.900763511657715,-29.823501586914062,31.146974563598633,0.0,46.45417785644531,-43.30064392089844,29.447086334228516,-25.124929428100586,26.494577407836914,0.0
1868,-2.909423828125,-2.800048828125,-3.91259765625,7.389312744140625,-7.3740458488464355,4.85496187210083,-29.8677978515625,31.16157341003418,0.0,46.498512268066406,-43.344886779785156,29.476215362548828,-25.113313674926758,26.482534408569336,0.0
1873,-2.909423828125,-2.80078125,-3.9296875,7.633587837219238,-7.43511438369751,4.58015251159668,-29.804758071899414,31.08616065979004,0.0,46.536678314208984,-43.38206100463867,29.499116897583008,-25.107460021972656,26.477066040039062,0.0
1878,-2.90625,-2.8017578125,-3.914306640625,7.328244209289551,-7.404580116271973,4.610687255859375,-29.885543823242188,31.121328353881836,0.0,46.57331848144531,-43.41908264160156,29.522171020507812,-25.103702545166016,26.472015380859375,0.0
1883,-2.908447265625,-2.798095703125,-3.91650390625,7.633587837219238,-7.312977313995361,4.885496139526367,-29.83759117126465,31.142297744750977,0.0,46.61148452758789,-43.45564651489258,29.546598434448242,-25.098115921020508,26.46758460998535,0.0
1888,-2.9072265625,-2.80224609375,-3.9169921875,7.190839767456055,-7.083969593048096,4.56488561630249,-29.875957489013672,31.116851806640625,0.0,46.647438049316406,-43.491065979003906,29.56942367553711,-25.095016479492188,26.46413803100586,0.0
1893,-2.91015625,-2.800048828125,-3.926513671875,7.267175674438477,-7.633587837219238,4.778625965118408,-29.808984756469727,31.108346939086914,0.0,46.683773040771484,-43.529232025146484,29.59331703186035,-25.09109115600586,26.457916259765625,0.0
1898,-2.912353515625,-2.802001953125,-3.921875,7.786259651184082,-7.297709941864014,5.007633686065674,-29.83844757080078,31.141368865966797,0.0,46.72270584106445,-43.56571960449219,29.61835479736328,-25.08480453491211,26.453617095947266,0.0
1903,-2.910888671875,-2.794677734375,-3.924560546875,7.328244209289551,-7.648854732513428,4.610687255859375,-29.76727867126465,31.139488220214844,0.0,46.75934600830078,-43.603965759277344,29.641408920288086,-25.080337524414062,26.447580337524414,0.0
1908,-2.906982421875,-2.798828125,-3.91943359375,7.4809160232543945,-7.740458011627197,4.656488418579102,-29.836563110351562,31.114728927612305,0.0,46.796749114990234,-43.642669677734375,29.664691925048828,-25.075603485107422,26.440950393676758,0.0
1913,-2.911865234375,-2.79833984375,-3.92236328125,7.404580116271973,-7.358778476715088,4.473282337188721,-29.805606842041016,31.146223068237305,0.0,46.833770751953125,-43.67946243286133,29.687057495117188,-25.07105827331543,26.436464309692383,0.0
1918,-2.908203125,-2.79931640625,-3.91748046875,7.358778476715088,-7.358778476715088,5.206106662750244,-29.84514045715332,31.132246017456055,0.0,46.87056350708008,-43.71625518798828,29.71308708190918,-25.06702995300293,26.431903839111328,0.0
1923,-2.908935546875,-2.80322265625,-3.92041015625,7.496183395385742,-7.526717662811279,4.503816604614258,-29.865497589111328,31.114131927490234,0.0,46.908042907714844,-43.75388717651367,29.735605239868164,-25.062475204467773,26.426406860351562,0.0
1928,-2.90576171875,-2.7958984375,-3.91796875,7.3740458488464355,-7.190839767456055,4.961832046508789,-29.820316314697266,31.119319915771484,0.0,46.94491195678711,-43.78984069824219,29.760414123535156,-25.058238983154297,26.422639846801758,0.0
1933,-2.91064453125,-2.7998046875,-3.92333984375,8.015267372131348,-7.190839767456055,4.793893337249756,-29.818254470825195,31.12693214416504,0.0,46.984989166259766,-43.8257942199707,29.78438377380371,-25.050823211669922,26.418941497802734,0.0
1938,-2.909423828125,-2.80078125,-3.91796875,7.679389476776123,-7.358778476715088,5.022900581359863,-29.85240364074707,31.136310577392578,0.0,47.02338790893555,-43.862586975097656,29.809497833251953,-25.04534912109375,26.414485931396484,0.0
1944,-2.90771484375,-2.796875,-3.92138671875,7.267175674438477,-7.526717662811279,4.992366313934326,-29.80914878845215,31.11871910095215,0.0,47.059722900390625,-43.90021896362305,29.83445930480957,-25.041654586791992,26.40909767150879,0.0
1949,-2.90869140625,-2.798095703125,-3.91845703125,7.557251930236816,-7.175572395324707,5.083969593048096,-29.82890510559082,31.13605499267578,0.0,47.10506820678711,-43.94327163696289,29.86496353149414,-25.02925682067871,26.398563385009766,0.0
1954,-2.90966796875,-2.79931640625,-3.919921875,7.648854732513428,-7.4809160232543945,4.58015251159668,-29.83078384399414,31.134553909301758,0.0,47.143314361572266,-43.980674743652344,29.88786506652832,-25.023996353149414,26.393688201904297,0.0
1959,-2.90966796875,-2.8017578125,-3.9208984375,7.450381755828857,-7.450381755828857,4.610687255859375,-29.84836769104004,31.12290382385254,0.0,47.180564880371094,-44.01792526245117,29.910919189453125,-25.019865036010742,26.38890838623047,0.0
1964,-2.912353515625,-2.80322265625,-3.92041015625,7.251908302307129,-7.14503812789917,4.961832046508789,-29.855173110961914,31.143905639648438,0.0,47.21682357788086,-44.05364990234375,29.935728073120117,-25.01678466796875,26.38581085205078,0.0
1969,-2.907958984375,-2.8037109375,-3.91845703125,7.465648651123047,-7.450381755828857,4.717557430267334,-29.880708694458008,31.11248207092285,0.0,47.254150390625,-44.09090042114258,29.95931625366211,-25.01282501220703,26.380992889404297,0.0
1974,-2.91015625,-2.802978515625,-3.921142578125,7.664122104644775,-7.282442569732666,4.900763511657715,-29.85667610168457,31.122379302978516,0.0,47.29247283935547,-44.12731170654297,29.98381996154785,-25.007732391357422,26.377099990844727,0.0
1979,-2.907470703125,-2.798828125,-3.92578125,7.43511438369751,-7.404580116271973,4.58015251159668,-29.80927085876465,31.09181022644043,0.0,47.329647064208984,-44.16433334350586,30.00672149658203,-25.00347900390625,26.372406005859375,0.0
1984,-2.90966796875,-2.80322265625,-3.913818359375,7.14503812789917,-7.312977313995361,4.992366313934326,-29.89012336730957,31.148733139038086,0.0,47.36537170410156,-44.200897216796875,30.03168296813965,-25.00123405456543,26.368576049804688,0.0
1989,-2.90771484375,-2.800537109375,-3.919921875,7.572519302368164,-7.312977313995361,4.7633585929870605,-29.84745979309082,31.11379623413086,0.0,47.40323257446289,-44.23746109008789,30.055500030517578,-24.99658203125,26.364524841308594,0.0
1994,-2.910400390625,-2.796630859375,-3.922607421875,7.206106662750244,-7.450381755828857,4.534351348876953,-29.793935775756836,31.13763999938965,0.0,47.43926239013672,-44.27471160888672,30.07817268371582,-24.993408203125,26.35997200012207,0.0
1999,-2.908447265625,-2.797119140625,-3.920166015625,7.267175674438477,-7.8015265464782715,4.793893337249756,-29.81406021118164,31.129589080810547,0.0,47.4755973815918,-44.313720703125,30.102142333984375,-24.99007797241211,26.353641510009766,0.0
2004,-2.908935546875,-2.802978515625,-3.916259765625,7.648854732513428,-7.3740458488464355,4.778625965118408,-29.880239486694336,31.13264274597168,0.0,47.51384353637695,-44.350589752197266,30.126035690307617,-24.985315322875977,26.3494873046875,0.0
2009,-2.90771484375,-2.79833984375,-3.925048828125,7.526717662811279,-7.664122104644775,4.656488418579102,-29.807201385498047,31.098562240600586,0.0,47.551475524902344,-44.388912200927734,30.14931869506836,-24.980684280395508,26.343679428100586,0.0
2014,-2.910400390625,-2.80615234375,-3.92626953125,7.664122104644775,-7.389312744140625,4.427480697631836,-29.863082885742188,31.09288787841797,0.0,47.58979797363281,-44.42585754394531,30.17145538330078,-24.975772857666016,26.3392276763916,0.0
2019,-2.91015625,-2.800537109375,-3.92138671875,7.5877861976623535,-7.114503860473633,5.038167953491211,-29.83413314819336,31.128801345825195,0.0,47.62773513793945,-44.461429595947266,30.196645736694336,-24.971067428588867,26.336406707763672,0.0
2024,-2.904296875,-2.799560546875,-3.92626953125,7.847328186035156,-6.946564674377441,4.961832046508789,-29.823307037353516,31.0598201751709,0.0,47.66697311401367,-44.49616241455078,30.221454620361328,-24.965023040771484,26.333961486816406,0.0
2030,-2.908203125,-2.79833984375,-3.9189453125,7.4809160232543945,-7.648854732513428,4.824427604675293,-29.830551147460938,31.128957748413086,0.0,47.711856842041016,-44.542057037353516,30.25040054321289,-24.953542709350586,26.321001052856445,0.0
2035,-2.91015625,-2.7978515625,-3.9169921875,7.43511438369751,-7.083969593048096,4.809160232543945,-29.828283309936523,31.155851364135742,0.0,47.74903106689453,-44.577476501464844,30.274446487426758,-24.949771881103516,26.31870460510254,0.0
2040,-2.90869140625,-2.79931640625,-3.92578125,7.343511581420898,-7.389312744140625,4.870229244232178,-29.809906005859375,31.1009578704834,0.0,47.78574752807617,-44.61442184448242,30.298797607421875,-24.946346282958984,26.31452178955078,0.0
2045,-2.9091796875,-2.799072265625,-3.920654296875,7.312977313995361,-7.404580116271973,5.114503860473633,-29.82712173461914,31.12790870666504,0.0,47.82231140136719,-44.65144348144531,30.324369430541992,-24.94320297241211,26.31046485900879,0.0
2050,-2.9091796875,-2.797119140625,-3.914306640625,7.5877861976623535,-7.389312744140625,4.778625965118408,-29.835683822631836,31.161102294921875,0.0,47.86024856567383,-44.68838882446289,30.348262786865234,-24.938764572143555,26.306726455688477,0.0
2055,-2.908447265625,-2.796142578125,-3.919921875,7.358778476715088,-7.4809160232543945,4.931297779083252,-29.80642318725586,31.133623123168945,0.0,47.89704132080078,-44.725791931152344,30.3729190826416,-24.935283660888672,26.3023624420166,0.0
2060,-2.910400390625,-2.804443359375,-3.92578125,7.2366414070129395,-7.251908302307129,4.702290058135986,-29.849998474121094,31.10019302368164,0.0,47.933223724365234,-44.76205062866211,30.39643096923828,-24.932722091674805,26.298931121826172,0.0
2065,-2.90771484375,-2.80078125,-3.91943359375,7.3740458488464355,-6.961832046508789,4.1984734535217285,-29.851604461669922,31.115140914916992,0.0,47.9700927734375,-44.79685974121094,30.417423248291016,-24.929494857788086,26.297054290771484,0.0
2070,-2.908447265625,-2.799072265625,-3.919921875,7.465648651123047,-7.007633686065674,4.732824325561523,-29.832311630249023,31.124662399291992,0.0,48.00741958618164,-44.8318977355957,30.44108772277832,-24.92569351196289,26.295019149780273,0.0
2075,-2.904541015625,-2.80126953125,-3.924072265625,7.5877861976623535,-6.809160232543945,4.870229244232178,-29.84660530090332,31.066131591796875,0.0,48.04535675048828,-44.865943908691406,30.465438842773438,-24.92140007019043,26.293575286865234,0.0
2080,-2.913330078125,-2.8017578125,-3.91943359375,7.4809160232543945,-7.41984748840332,4.732824325561523,-29.843265533447266,31.161075592041016,0.0,48.082759857177734,-44.90304183959961,30.489103317260742,-24.917634963989258,26.289743423461914,0.0
2085,-2.906494140625,-2.797119140625,-3.921142578125,7.404580116271973,-7.099236488342285,4.366412162780762,-29.815980911254883,31.108373641967773,0.0,48.119781494140625,-44.93853759765625,30.510934829711914,-24.914079666137695,26.28716468811035,0.0
2090,-2.909423828125,-2.801513671875,-3.918701171875,7.603053569793701,-7.099236488342285,4.687022686004639,-29.85589027404785,31.130929946899414,0.0,48.15779495239258,-44.97403335571289,30.53437042236328,-24.90982437133789,26.284748077392578,0.0
2095,-2.9072265625,-2.79736328125,-3.922607421875,7.526717662811279,-7.190839767456055,4.931297779083252,-29.80997085571289,31.107742309570312,0.0,48.19542694091797,-45.009986877441406,30.55902671813965,-24.905656814575195,26.281726837158203,0.0
2100,-2.909423828125,-2.800048828125,-3.91845703125,7.114503860473633,-7.007633686065674,4.702290058135986,-29.843948364257812,31.13646125793457,0.0,48.23099899291992,-45.04502487182617,30.582538604736328,-24.903785705566406,26.279821395874023,0.0
2105,-2.91015625,-2.798095703125,-3.917236328125,7.832061290740967,-7.190839767456055,4.687022686004639,-29.82944679260254,31.154056549072266,0.0,48.27016067504883,-45.08097839355469,30.605974197387695,-24.898258209228516,26.277130126953125,0.0
2111,-2.91015625,-2.802001953125,-3.920166015625,7.4809160232543945,-7.633587837219238,4.793893337249756,-29.852027893066406,31.129547119140625,0.0,48.31504440307617,-45.12678146362305,30.634737014770508,-24.88732147216797,26.26459503173828,0.0
2116,-2.903076171875,-2.80322265625,-3.914794921875,7.4809160232543945,-7.251908302307129,5.083969593048096,-29.906097412109375,31.087059020996094,0.0,48.352447509765625,-45.16304016113281,30.66015625,-24.884246826171875,26.26132583618164,0.0
2121,-2.90869140625,-2.798828125,-3.9150390625,7.022900581359863,-7.282442569732666,4.5190839767456055,-29.849287033081055,31.14846420288086,0.0,48.3875617980957,-45.1994514465332,30.68275260925293,-24.883071899414062,26.258333206176758,0.0
2126,-2.9072265625,-2.80224609375,-3.931884765625,7.404580116271973,-7.465648651123047,4.549618244171143,-29.815359115600586,31.053178787231445,0.0,48.424583435058594,-45.236778259277344,30.705501556396484,-24.87976837158203,26.253793716430664,0.0
2131,-2.912353515625,-2.801025390625,-3.92626953125,7.3740458488464355,-7.267175674438477,4.641221523284912,-29.81197738647461,31.12554359436035,0.0,48.46145248413086,-45.27311325073242,30.728708267211914,-24.87660789489746,26.250755310058594,0.0
2136,-2.91064453125,-2.80126953125,-3.92333984375,7.206106662750244,-7.389312744140625,4.931297779083252,-29.83118438720703,31.122455596923828,0.0,48.49748229980469,-45.31005859375,30.75336456298828,-24.87442398071289,26.247098922729492,0.0
2141,-2.907958984375,-2.801513671875,-3.92724609375,7.41984748840332,-7.41984748840332,4.85496187210083,-29.825550079345703,31.081607818603516,0.0,48.53458023071289,-45.3471565246582,30.777639389038086,-24.871145248413086,26.24302864074707,0.0
2146,-2.908203125,-2.797119140625,-3.924072265625,7.328244209289551,-7.450381755828857,5.083969593048096,-29.798917770385742,31.11072540283203,0.0,48.57122039794922,-45.38440704345703,30.803058624267578,-24.868154525756836,26.239023208618164,0.0
2151,-2.90869140625,-2.80224609375,-3.917236328125,7.832061290740967,-7.175572395324707,5.007633686065674,-29.870534896850586,31.128578186035156,0.0,48.610382080078125,-45.420284271240234,30.828096389770508,-24.8631591796875,26.236522674560547,0.0
2156,-2.911376953125,-2.799072265625,-3.915283203125,7.297709941864014,-7.251908302307129,4.503816604614258,-29.842329025268555,31.170080184936523,0.0,48.64686965942383,-45.45654296875,30.850614547729492,-24.86064910888672,26.233932495117188,0.0
2161,-2.90576171875,-2.79833984375,-3.925048828125,7.190839767456055,-6.961832046508789,4.748091697692871,-29.81308364868164,31.0815372467041,0.0,48.682823181152344,-45.49135208129883,30.87435531616211,-24.858482360839844,26.232192993164062,0.0
2166,-2.908935546875,-2.801513671875,-3.91259765625,7.633587837219238,-7.251908302307129,4.595419883728027,-29.882219314575195,31.152820587158203,0.0,48.72098922729492,-45.527610778808594,30.8973331451416,-24.854589462280273,26.22949981689453,0.0
2171,-2.9072265625,-2.800537109375,-3.924072265625,7.4809160232543945,-7.328244209289551,4.687022686004639,-29.83204460144043,31.091779708862305,0.0,48.758392333984375,-45.56425094604492,30.92076873779297,-24.851133346557617,26.22602081298828,0.0
2176,-2.909423828125,-2.7958984375,-3.92431640625,7.541984558105469,-7.526717662811279,4.961832046508789,-29.783464431762695,31.12404441833496,0.0,48.79610061645508,-45.60188293457031,30.94557762145996,-24.84705924987793,26.221790313720703,0.0
2181,-2.90869140625,-2.798828125,-3.927734375,7.343511581420898,-7.389312744140625,4.5190839767456055,-29.797658920288086,31.09408950805664,0.0,48.83281707763672,-45.63882827758789,30.96817398071289,-24.844085693359375,26.218061447143555,0.0
2186,-2.909912109375,-2.79833984375,-3.9169921875,7.633587837219238,-7.4809160232543945,4.900763511657715,-29.833335876464844,31.1522274017334,0.0,48.8709831237793,-45.676231384277344,30.992677688598633,-24.83992576599121,26.21428680419922,0.0
2192,-2.905029296875,-2.7978515625,-3.92431640625,7.633587837219238,-7.312977313995361,4.671755790710449,-29.813955307006836,31.079774856567383,0.0,48.916786193847656,-45.72010803222656,31.020708084106445,-24.828170776367188,26.203704833984375,0.0
2197,-2.9091796875,-2.798095703125,-3.9267578125,7.5877861976623535,-7.312977313995361,4.839694499969482,-29.793689727783203,31.104755401611328,0.0,48.9547233581543,-45.75667190551758,31.044906616210938,-24.82415771484375,26.200618743896484,0.0
2202,-2.909423828125,-2.798583984375,-3.928955078125,7.41984748840332,-7.114503860473633,4.503816604614258,-29.78834342956543,31.095989227294922,0.0,48.9918212890625,-45.79224395751953,31.067424774169922,-24.820960998535156,26.19847297668457,0.0
2207,-2.912841796875,-2.798095703125,-3.91650390625,7.43511438369751,-7.343511581420898,4.885496139526367,-29.824308395385742,31.180601119995117,0.0,49.028995513916016,-45.82896041870117,31.09185218811035,-24.817943572998047,26.19576644897461,0.0
2212,-2.908203125,-2.798583984375,-3.927490234375,7.618320465087891,-7.526717662811279,4.824427604675293,-29.797964096069336,31.091623306274414,0.0,49.06708526611328,-45.86659240722656,31.11597442626953,-24.81385040283203,26.191556930541992,0.0
2217,-2.9091796875,-2.7978515625,-3.91796875,7.251908302307129,-7.129770755767822,4.56488561630249,-29.827260971069336,31.143152236938477,0.0,49.10334396362305,-45.90224075317383,31.1387996673584,-24.81179428100586,26.18968963623047,0.0
2222,-2.90966796875,-2.80126953125,-3.9208984375,7.404580116271973,-7.175572395324707,4.473282337188721,-29.844057083129883,31.12439727783203,0.0,49.14036560058594,-45.93811798095703,31.161165237426758,-24.809097290039062,26.187471389770508,0.0
2227,-2.90966796875,-2.800048828125,-3.915283203125,7.099236488342285,-7.206106662750244,4.458015441894531,-29.856124877929688,31.152189254760742,0.0,49.17586135864258,-45.97414779663086,31.183454513549805,-24.80801010131836,26.1852970123291,0.0
2232,-2.910888671875,-2.80322265625,-3.91748046875,7.43511438369751,-7.8015265464782715,4.732824325561523,-29.871519088745117,31.143688201904297,0.0,49.213035583496094,-46.01315689086914,31.20711898803711,-24.805356979370117,26.180112838745117,0.0
2237,-2.902587890625,-2.799072265625,-3.924560546875,7.847328186035156,-7.328244209289551,5.099236488342285,-29.831098556518555,31.053714752197266,0.0,49.25227355957031,-46.04979705810547,31.232614517211914,-24.80039405822754,26.17669677734375,0.0
2242,-2.90625,-2.798583984375,-3.920166015625,7.496183395385742,-7.14503812789917,4.687022686004639,-29.833635330200195,31.10594940185547,0.0,49.28975296020508,-46.08552169799805,31.25605010986328,-24.797216415405273,26.174560546875,0.0
2247,-2.912841796875,-2.798828125,-3.92626953125,7.129770755767822,-7.3740458488464355,4.503816604614258,-29.791114807128906,31.13650131225586,0.0,49.325401306152344,-46.12239074707031,31.278568267822266,-24.79558563232422,26.171499252319336,0.0
2252,-2.91064453125,-2.80126953125,-3.916259765625,7.572519302368164,-7.664122104644775,4.656488418579102,-29.8599796295166,31.152774810791016,0.0,49.36326217651367,-46.16071319580078,31.301851272583008,-24.79222297668457,26.1671199798584,0.0
2257,-2.908447265625,-2.797607421875,-3.922607421875,7.770992279052734,-7.343511581420898,4.610687255859375,-29.808448791503906,31.117637634277344,0.0,49.40211868286133,-46.19742965698242,31.324905395507812,-24.78754234313965,26.16411590576172,0.0
2262,-2.90966796875,-2.798828125,-3.923095703125,7.541984558105469,-7.312977313995361,4.946564674377441,-29.813568115234375,31.122453689575195,0.0,49.43982696533203,-46.23399353027344,31.349637985229492,-24.784055709838867,26.16130828857422,0.0
2267,-2.910400390625,-2.80029296875,-3.91845703125,7.404580116271973,-7.206106662750244,4.595419883728027,-29.84315299987793,31.144224166870117,0.0,49.47684860229492,-46.270023345947266,31.372615814208984,-24.78146743774414,26.15919303894043,0.0
2273,-2.909912109375,-2.800537109375,-3.923583984375,7.41984748840332,-7.175572395324707,4.977099418640137,-29.82593536376953,31.117267608642578,0.0,49.521366119384766,-46.31307601928711,31.40247917175293,-24.771425247192383,26.150022506713867,0.0
2278,-2.908935546875,-2.798828125,-3.919189453125,7.404580116271973,-7.328244209289551,4.687022686004639,-29.8316593170166,31.132802963256836,0.0,49.558387756347656,-46.34971618652344,31.425914764404297,-24.7689266204834,26.14737892150879,0.0
2283,-2.907470703125,-2.8017578125,-3.91552734375,7.4809160232543945,-7.465648651123047,4.961832046508789,-29.876874923706055,31.12674903869629,0.0,49.59579086303711,-46.38704299926758,31.45072364807129,-24.7663631439209,26.144020080566406,0.0
2288,-2.909912109375,-2.80029296875,-3.916259765625,7.282442569732666,-7.175572395324707,4.839694499969482,-29.85356903076172,31.149383544921875,0.0,49.6322021484375,-46.42292022705078,31.47492218017578,-24.764636993408203,26.142271041870117,0.0
2293,-2.90625,-2.7978515625,-3.925048828125,7.618320465087891,-6.931297779083252,4.748091697692871,-29.807300567626953,31.087282180786133,0.0,49.670291900634766,-46.457576751708984,31.4986629486084,-24.76093292236328,26.14131736755371,0.0
2298,-2.909912109375,-2.799560546875,-3.91845703125,7.541984558105469,-7.251908302307129,4.85496187210083,-29.838159561157227,31.142210006713867,0.0,49.70800018310547,-46.49383544921875,31.522937774658203,-24.75783348083496,26.139142990112305,0.0
2303,-2.910400390625,-2.800537109375,-3.922607421875,7.572519302368164,-7.328244209289551,4.6259541511535645,-29.828433990478516,31.125701904296875,0.0,49.7458610534668,-46.53047561645508,31.54606819152832,-24.754528045654297,26.13648223876953,0.0
2308,-2.90966796875,-2.801025390625,-3.9228515625,7.251908302307129,-7.603053569793701,4.549618244171143,-29.833959579467773,31.116785049438477,0.0,49.78211975097656,-46.56848907470703,31.568817138671875,-24.75286865234375,26.13240623474121,0.0
2313,-2.90625,-2.802734375,-3.92041015625,7.496183395385742,-7.450381755828857,5.038167953491211,-29.86929702758789,31.09221649169922,0.0,49.81959915161133,-46.60573959350586,31.59400749206543,-24.75023651123047,26.128942489624023,0.0
2318,-2.909423828125,-2.80126953125,-3.917724609375,7.282442569732666,-7.465648651123047,5.022900581359863,-29.857709884643555,31.135860443115234,0.0,49.85601043701172,-46.64306640625,31.619121551513672,-24.748598098754883,26.125713348388672,0.0
2323,-2.909423828125,-2.80029296875,-3.91357421875,7.282442569732666,-7.6946563720703125,5.114503860473633,-29.865978240966797,31.15663719177246,0.0,49.89242172241211,-46.681541442871094,31.64469337463379,-24.747018814086914,26.121501922607422,0.0
2328,-2.907470703125,-2.801025390625,-3.927734375,7.5877861976623535,-6.961832046508789,4.85496187210083,-29.82072639465332,31.07675552368164,0.0,49.93035888671875,-46.71635055541992,31.668968200683594,-24.743619918823242,26.120410919189453,0.0
2333,-2.910400390625,-2.800537109375,-3.921630859375,7.389312744140625,-7.053435325622559,4.961832046508789,-29.8324031829834,31.1298828125,0.0,49.96730422973633,-46.751617431640625,31.693777084350586,-24.74129867553711,26.119224548339844,0.0
2338,-2.909912109375,-2.798583984375,-3.923583984375,7.465648651123047,-7.083969593048096,4.748091697692871,-29.808691024780273,31.123233795166016,0.0,50.00463104248047,-46.78703689575195,31.717517852783203,-24.738447189331055,26.117841720581055,0.0
2343,-2.910400390625,-2.797119140625,-3.92236328125,7.3740458488464355,-7.465648651123047,4.656488418579102,-29.799240112304688,31.137195587158203,0.0,50.041500091552734,-46.824363708496094,31.740800857543945,-24.735998153686523,26.11465835571289,0.0
2348,-2.912353515625,-2.803466796875,-3.92236328125,7.389312744140625,-7.557251930236816,4.56488561630249,-29.849388122558594,31.13479995727539,0.0,50.07844543457031,-46.86214828491211,31.763626098632812,-24.733821868896484,26.111019134521484,0.0
2354,-2.908935546875,-2.8017578125,-3.923583984375,7.343511581420898,-7.389312744140625,4.900763511657715,-29.83965492248535,31.105031967163086,0.0,50.11516189575195,-46.89909362792969,31.788129806518555,-24.731813430786133,26.108028411865234,0.0
2359,-2.909423828125,-2.7958984375,-3.9150390625,7.43511438369751,-7.6946563720703125,4.870229244232178,-29.82117462158203,31.163829803466797,0.0,50.15977096557617,-46.94526290893555,31.817350387573242,-24.721946716308594,26.096389770507812,0.0
2364,-2.90869140625,-2.79931640625,-3.9189453125,7.496183395385742,-7.603053569793701,4.809160232543945,-29.837703704833984,31.130226135253906,0.0,50.19725036621094,-46.9832763671875,31.84139633178711,-24.719331741333008,26.092689514160156,0.0
2369,-2.91162109375,-2.800048828125,-3.91796875,7.312977313995361,-7.038167953491211,4.7633585929870605,-29.839296340942383,31.15770149230957,0.0,50.23381423950195,-47.01846694946289,31.86521339416504,-24.7176456451416,26.091999053955078,0.0
2374,-2.911376953125,-2.80029296875,-3.919921875,7.389312744140625,-6.839694499969482,4.732824325561523,-29.834247589111328,31.146455764770508,0.0,50.27075958251953,-47.05266571044922,31.888877868652344,-24.71554946899414,26.092212677001953,0.0
2379,-2.909423828125,-2.79833984375,-3.930908203125,7.603053569793701,-7.5877861976623535,5.053435325622559,-29.77825927734375,31.088376998901367,0.0,50.308773040771484,-47.09060287475586,31.91414451599121,-24.712020874023438,26.08831024169922,0.0
2384,-2.913330078125,-2.801513671875,-3.922119140625,7.129770755767822,-7.41984748840332,5.053435325622559,-29.830198287963867,31.150320053100586,0.0,50.34442138671875,-47.12770080566406,31.939411163330078,-24.711210250854492,26.085678100585938,0.0
2389,-2.9111328125,-2.800537109375,-3.919921875,7.4809160232543945,-7.312977313995361,4.56488561630249,-29.837141036987305,31.143583297729492,0.0,50.3818244934082,-47.16426467895508,31.962236404418945,-24.708698272705078,26.083539962768555,0.0
2394,-2.91064453125,-2.799560546875,-3.917236328125,6.992366313934326,-7.572519302368164,5.068702220916748,-29.840913772583008,31.153825759887695,0.0,50.416786193847656,-47.202125549316406,31.987579345703125,-24.708648681640625,26.080190658569336,0.0
2399,-2.91015625,-2.802978515625,-3.922607421875,7.4809160232543945,-7.328244209289551,4.946564674377441,-29.850717544555664,31.116113662719727,0.0,50.45418930053711,-47.238765716552734,32.01231384277344,-24.70623016357422,26.07781410217285,0.0
2404,-2.9091796875,-2.80029296875,-3.9140625,7.022900581359863,-7.343511581420898,4.595419883728027,-29.864728927612305,31.152416229248047,0.0,50.48930358886719,-47.275482177734375,32.0352897644043,-24.706192016601562,26.07561492919922,0.0
2409,-2.906005859375,-2.80126953125,-3.921142578125,7.190839767456055,-7.160305500030518,4.7633585929870605,-29.85411834716797,31.091432571411133,0.0,50.5252571105957,-47.311283111572266,32.059104919433594,-24.70524024963379,26.073923110961914,0.0
2414,-2.9091796875,-2.8017578125,-3.9248046875,7.557251930236816,-7.862595558166504,4.702290058135986,-29.833955764770508,31.10193634033203,0.0,50.56304168701172,-47.3505973815918,32.08261489868164,-24.70233154296875,26.068819046020508,0.0
2419,-2.91162109375,-2.798095703125,-3.917236328125,7.465648651123047,-7.2366414070129395,5.038167953491211,-29.825021743774414,31.166824340820312,0.0,50.60036849975586,-47.38677978515625,32.10780715942383,-24.6998291015625,26.067289352416992,0.0
2424,-2.907958984375,-2.801513671875,-3.928955078125,7.450381755828857,-7.328244209289551,4.702290058135986,-29.818603515625,31.074302673339844,0.0,50.63761901855469,-47.42341995239258,32.131317138671875,-24.697368621826172,26.064680099487305,0.0
2429,-2.91015625,-2.80078125,-3.92431640625,7.450381755828857,-7.251908302307129,4.961832046508789,-29.824377059936523,31.115514755249023,0.0,50.674869537353516,-47.459678649902344,32.1561279296875,-24.694955825805664,26.062740325927734,0.0
2435,-2.908447265625,-2.80078125,-3.92041015625,7.496183395385742,-7.297709941864014,4.641221523284912,-29.845417022705078,31.11734390258789,0.0,50.71234893798828,-47.49616622924805,32.1793327331543,-24.692466735839844,26.060590744018555,0.0
2440,-2.909912109375,-2.799072265625,-3.91845703125,7.572519302368164,-7.267175674438477,4.534351348876953,-29.833847045898438,31.143705368041992,0.0,50.75778579711914,-47.53976821899414,32.206539154052734,-24.682109832763672,26.051658630371094,0.0
2445,-2.90771484375,-2.800537109375,-3.9150390625,7.526717662811279,-7.282442569732666,4.824427604675293,-29.867341995239258,31.13471031188965,0.0,50.79541778564453,-47.57617950439453,32.23065948486328,-24.679790496826172,26.049861907958984,0.0
2450,-2.91015625,-2.803466796875,-3.914794921875,7.221374034881592,-7.541984558105469,4.900763511657715,-29.886823654174805,31.14805793762207,0.0,50.83152389526367,-47.613887786865234,32.255165100097656,-24.679126739501953,26.0468692779541,0.0
2455,-2.9111328125,-2.800537109375,-3.9150390625,7.343511581420898,-7.511450290679932,4.641221523284912,-29.85700035095215,31.164506912231445,0.0,50.86824035644531,-47.65144348144531,32.27836990356445,-24.677650451660156,26.044153213500977,0.0
2460,-2.9091796875,-2.799072265625,-3.91796875,7.297709941864014,-7.358778476715088,5.007633686065674,-29.83804702758789,31.139415740966797,0.0,50.904727935791016,-47.688236236572266,32.303409576416016,-24.6762752532959,26.042034149169922,0.0
2465,-2.905517578125,-2.7998046875,-3.92236328125,7.4809160232543945,-7.206106662750244,4.793893337249756,-29.837684631347656,31.086427688598633,0.0,50.94213104248047,-47.724266052246094,32.32737731933594,-24.67399024963379,26.040325164794922,0.0
2470,-2.909423828125,-2.7998046875,-3.92529296875,7.5877861976623535,-7.114503860473633,4.870229244232178,-29.813995361328125,31.10793685913086,0.0,50.98006820678711,-47.75983810424805,32.35173034667969,-24.671022415161133,26.03921890258789,0.0
