Time,Acc_low_X,Acc_low_Y,Acc_low_Z,Gyro_low_X,Gyro_low_Y,Gyro_low_Z,Acc_X,Acc_Y,Acc_Z,Gyro_X,Gyro_Y,Gyro_Z,Euler_X,Euler_Y,Euler_Z
0,-2.936767578125,-3.826416015625,-4.924560546875,7.450381755828857,-7.14503812789917,4.717557430267334,-33.71714782714844,25.21607780456543,0.0,23.46870231628418,-22.50687026977539,14.860306739807129,-30.649240493774414,22.655832290649414,0.0
6,-2.93701171875,-3.8251953125,-4.928955078125,7.4809160232543945,-7.14503812789917,4.595419883728027,-33.69072341918945,25.208274841308594,0.0,23.513587951660156,-22.549739837646484,14.887879371643066,-32.10505676269531,23.874895095825195,0.0
11,-2.939697265625,-3.829833984375,-4.92626953125,7.312977313995361,-7.5877861976623535,4.56488561630249,-33.727073669433594,25.22589683532715,0.0,23.550153732299805,-22.587678909301758,14.910703659057617,-32.61114501953125,24.2913875579834,0.0
16,-2.937744140625,-3.8251953125,-4.9189453125,7.450381755828857,-7.358778476715088,5.129770755767822,-33.72865295410156,25.241790771484375,0.0,23.587406158447266,-22.624473571777344,14.936352729797363,-32.85859680175781,24.497983932495117,0.0
21,-2.934814453125,-3.82861328125,-4.9189453125,7.43511438369751,-7.43511438369751,4.6259541511535645,-33.75922393798828,25.212308883666992,0.0,23.624582290649414,-22.661649703979492,14.959482192993164,-33.00693130493164,24.609464645385742,0.0
26,-2.934814453125,-3.8251953125,-4.921630859375,7.404580116271973,-7.2366414070129395,5.068702220916748,-33.724937438964844,25.21223258972168,0.0,23.661605834960938,-22.697832107543945,14.98482608795166,-33.09462356567383,24.678821563720703,0.0
31,-2.931640625,-3.82861328125,-4.92626953125,7.679389476776123,-7.43511438369751,4.977099418640137,-33.737667083740234,25.167972564697266,0.0,23.700002670288086,-22.735008239746094,15.009711265563965,-33.15284729003906,24.71627426147461,0.0
36,-2.935302734375,-3.827880859375,-4.93212890625,7.450381755828857,-6.977099418640137,4.335877895355225,-33.70074462890625,25.180742263793945,0.0,23.737255096435547,-22.769893646240234,15.031390190124512,-33.18828201293945,24.743417739868164,0.0
41,-2.93408203125,-3.827880859375,-4.92431640625,7.557251930236816,-7.14503812789917,4.7633585929870605,-33.734588623046875,25.193382263183594,0.0,23.775041580200195,-22.805618286132812,15.055207252502441,-33.215057373046875,24.761375427246094,0.0
46,-2.93505859375,-3.828857421875,-4.923828125,7.496183395385742,-7.557251930236816,4.366412162780762,-33.740966796875,25.199968338012695,0.0,23.812522888183594,-22.84340476989746,15.07703971862793,-33.233673095703125,24.771018981933594,0.0
51,-2.934326171875,-3.82763671875,-4.919677734375,7.618320465087891,-7.297709941864014,4.992366313934326,-33.7507209777832,25.208711624145508,0.0,23.850614547729492,-22.879894256591797,15.102001190185547,-33.245872497558594,24.777482986450195,0.0
56,-2.9365234375,-3.82470703125,-4.9169921875,7.2366414070129395,-7.526717662811279,4.5190839767456055,-33.73590850830078,25.2391357421875,0.0,23.886796951293945,-22.91752815246582,15.12459659576416,-33.25341796875,24.781339645385742,0.0
61,-2.9365234375,-3.823974609375,-4.9228515625,7.328244209289551,-7.312977313995361,4.809160232543945,-33.707611083984375,25.224328994750977,0.0,23.923439025878906,-22.95409393310547,15.148642539978027,-33.25445556640625,24.781585693359375,0.0
66,-2.9365234375,-3.82421875,-4.92529296875,7.618320465087891,-6.992366313934326,4.839694499969482,-33.69962692260742,25.21696662902832,0.0,23.961530685424805,-22.989055633544922,15.17284107208252,-33.25083541870117,24.78017234802246,0.0
71,-2.939453125,-3.82861328125,-4.92724609375,7.14503812789917,-7.450381755828857,4.595419883728027,-33.71534729003906,25.223983764648438,0.0,23.997255325317383,-23.026308059692383,15.195817947387695,-33.248435974121094,24.774967193603516,0.0
76,-2.9375,-3.826171875,-4.927490234375,7.465648651123047,-7.679389476776123,4.458015441894531,-33.70212173461914,25.21392250061035,0.0,24.034584045410156,-23.06470489501953,15.218108177185059,-33.24179458618164,24.766403198242188,0.0
81,-2.934814453125,-3.829345703125,-4.92333984375,7.450381755828857,-7.206106662750244,4.839694499969482,-33.74685287475586,25.198436737060547,0.0,24.071836471557617,-23.10073471069336,15.24230670928955,-33.23646545410156,24.757923126220703,0.0
87,-2.938232421875,-3.8251953125,-4.928466796875,7.343511581420898,-7.389312744140625,4.366412162780762,-33.68977737426758,25.21881866455078,0.0,24.11589813232422,-23.145071029663086,15.268505096435547,-33.2200813293457,24.74169921875,0.0
92,-2.934326171875,-3.827880859375,-4.925537109375,7.267175674438477,-7.465648651123047,4.396946430206299,-33.72917175292969,25.191808700561523,0.0,24.152233123779297,-23.18239974975586,15.29049015045166,-33.21251678466797,24.730083465576172,0.0
97,-2.93359375,-3.83203125,-4.921875,7.648854732513428,-7.3740458488464355,4.687022686004639,-33.77410888671875,25.187509536743164,0.0,24.19047737121582,-23.219270706176758,15.313924789428711,-33.204349517822266,24.718000411987305,0.0
102,-2.93701171875,-3.82568359375,-4.925048828125,7.358778476715088,-7.343511581420898,4.717557430267334,-33.709571838378906,25.2181396484375,0.0,24.227272033691406,-23.25598907470703,15.337512969970703,-33.19346237182617,24.706939697265625,0.0
107,-2.939697265625,-3.825439453125,-4.931640625,7.557251930236816,-7.43511438369751,5.022900581359863,-33.67544937133789,25.220420837402344,0.0,24.265058517456055,-23.29316520690918,15.362627029418945,-33.17940902709961,24.694902420043945,0.0
112,-2.9345703125,-3.8271484375,-4.923095703125,7.603053569793701,-7.251908302307129,4.488549709320068,-33.733211517333984,25.202056884765625,0.0,24.30307388305664,-23.329423904418945,15.385069847106934,-33.167259216308594,24.682392120361328,0.0
117,-2.93408203125,-3.822265625,-4.92138671875,7.282442569732666,-7.14503812789917,4.671755790710449,-33.707366943359375,25.213773727416992,0.0,24.33948516845703,-23.365148544311523,15.408428192138672,-33.15501022338867,24.67043685913086,0.0
122,-2.93310546875,-3.82666015625,-4.922607421875,7.358778476715088,-7.2366414070129395,4.442748069763184,-33.735233306884766,25.19346046447754,0.0,24.376279830932617,-23.401330947875977,15.430642127990723,-33.143062591552734,24.65677261352539,0.0
127,-2.937744140625,-3.826171875,-4.913818359375,7.526717662811279,-7.541984558105469,4.458015441894531,-33.755741119384766,25.254018783569336,0.0,24.41391372680664,-23.439041137695312,15.452932357788086,-33.13063049316406,24.643667221069336,0.0
132,-2.935791015625,-3.826416015625,-4.923095703125,7.221374034881592,-6.778625965118408,4.931297779083252,-33.72526168823242,25.21282958984375,0.0,24.45001983642578,-23.47293472290039,15.477588653564453,-33.118080139160156,24.632295608520508,0.0
137,-2.937744140625,-3.8291015625,-4.92431640625,7.450381755828857,-6.85496187210083,4.7633585929870605,-33.73436737060547,25.21826934814453,0.0,24.487272262573242,-23.50720977783203,15.501405715942383,-33.10438537597656,24.62037467956543,0.0
142,-2.939697265625,-3.828125,-4.921875,7.740458011627197,-7.206106662750244,4.595419883728027,-33.73267364501953,25.241901397705078,0.0,24.52597427368164,-23.54323959350586,15.524382591247559,-33.08891296386719,24.60724639892578,0.0
147,-2.935546875,-3.824951171875,-4.921875,7.465648651123047,-7.389312744140625,4.916030406951904,-33.72054672241211,25.21759033203125,0.0,24.563302993774414,-23.58018684387207,15.548962593078613,-33.07413101196289,24.592111587524414,0.0
152,-2.9345703125,-3.825439453125,-4.923828125,7.343511581420898,-7.251908302307129,4.778625965118408,-33.71849060058594,25.20372200012207,0.0,24.600021362304688,-23.616445541381836,15.572855949401855,-33.05964660644531,24.57699966430664,0.0
157,-2.9375,-3.825439453125,-4.923095703125,7.648854732513428,-7.312977313995361,4.58015251159668,-33.71446990966797,25.22780418395996,0.0,24.63826560974121,-23.653011322021484,15.595756530761719,-33.043338775634766,24.562191009521484,0.0
162,-2.935546875,-3.82568359375,-4.933349609375,7.526717662811279,-7.099236488342285,4.946564674377441,-33.68015670776367,25.183927536010742,0.0,24.675899505615234,-23.688507080078125,15.620489120483398,-33.02642822265625,24.546886444091797,0.0
168,-2.936279296875,-3.8232421875,-4.91943359375,7.648854732513428,-7.648854732513428,4.778625965118408,-33.716670989990234,25.233652114868164,0.0,24.721792221069336,-23.734399795532227,15.649161338806152,-33.00252151489258,24.522876739501953,0.0
173,-2.93896484375,-3.82568359375,-4.922119140625,7.343511581420898,-7.389312744140625,4.6259541511535645,-33.71656036376953,25.241024017333984,0.0,24.75851058959961,-23.771347045898438,15.672290802001953,-32.98760986328125,24.50786018371582,0.0
178,-2.939453125,-3.825927734375,-4.923828125,7.664122104644775,-7.465648651123047,4.549618244171143,-33.710323333740234,25.239381790161133,0.0,24.796831130981445,-23.80867576599121,15.695038795471191,-32.97079849243164,24.492263793945312,0.0
183,-2.9345703125,-3.828857421875,-4.9208984375,7.343511581420898,-7.358778476715088,4.1984734535217285,-33.75374221801758,25.204483032226562,0.0,24.83354949951172,-23.845470428466797,15.716031074523926,-32.95664596557617,24.476089477539062,0.0
188,-2.937744140625,-3.827392578125,-4.92578125,7.496183395385742,-7.328244209289551,4.595419883728027,-33.71675491333008,25.21788787841797,0.0,24.871030807495117,-23.882112503051758,15.739007949829102,-32.94057083129883,24.460336685180664,0.0
193,-2.93701171875,-3.829345703125,-4.92578125,7.511450290679932,-7.465648651123047,4.29007625579834,-33.73198318481445,25.20813751220703,0.0,24.908588409423828,-23.91944122314453,15.760457992553711,-32.924713134765625,24.443559646606445,0.0
198,-2.932373046875,-3.828125,-4.92822265625,7.679389476776123,-7.43511438369751,4.641221523284912,-33.72481918334961,25.169090270996094,0.0,24.946985244750977,-23.95661735534668,15.783663749694824,-32.907737731933594,24.425870895385742,0.0
203,-2.933349609375,-3.826416015625,-4.92529296875,7.251908302307129,-7.14503812789917,4.916030406951904,-33.72231674194336,25.188323974609375,0.0,24.983243942260742,-23.992341995239258,15.808243751525879,-32.8927116394043,24.410064697265625,0.0
208,-2.935302734375,-3.82666015625,-4.921630859375,7.496183395385742,-7.175572395324707,4.748091697692871,-33.73391342163086,25.21272087097168,0.0,25.02072525024414,-24.02821922302246,15.831984519958496,-32.87666320800781,24.39463996887207,0.0
213,-2.9365234375,-3.827392578125,-4.92626953125,7.664122104644775,-7.70992374420166,5.206106662750244,-33.71770095825195,25.20734214782715,0.0,25.059045791625977,-24.066768646240234,15.858015060424805,-32.85931396484375,24.376394271850586,0.0
218,-2.933837890625,-3.826416015625,-4.927978515625,7.328244209289551,-7.267175674438477,4.7633585929870605,-33.71051788330078,25.184494018554688,0.0,25.095687866210938,-24.103103637695312,15.881832122802734,-32.8433952331543,24.35976791381836,0.0
223,-2.932373046875,-3.823974609375,-4.929443359375,7.618320465087891,-7.648854732513428,5.312977313995361,-33.691287994384766,25.174678802490234,0.0,25.133779525756836,-24.141347885131836,15.90839672088623,-32.8255500793457,24.34101676940918,0.0
228,-2.9375,-3.826416015625,-4.92138671875,7.312977313995361,-7.099236488342285,4.534351348876953,-33.72799301147461,25.2304630279541,0.0,25.170345306396484,-24.176843643188477,15.931068420410156,-32.810001373291016,24.326221466064453,0.0
233,-2.935546875,-3.823486328125,-4.922119140625,7.557251930236816,-7.41984748840332,4.732824325561523,-33.70944595336914,25.2200927734375,0.0,25.208131790161133,-24.213943481445312,15.954732894897461,-32.79277420043945,24.309541702270508,0.0
238,-2.93896484375,-3.82373046875,-4.92822265625,7.648854732513428,-7.14503812789917,4.4122138023376465,-33.67888259887695,25.228187561035156,0.0,25.246376037597656,-24.24966812133789,15.976794242858887,-32.77440643310547,24.294342041015625,0.0
243,-2.937255859375,-3.8251953125,-4.922119140625,7.5877861976623535,-7.190839767456055,4.56488561630249,-33.717227935791016,25.229232788085938,0.0,25.28431510925293,-24.285621643066406,15.999618530273438,-32.75716018676758,24.278867721557617,0.0
249,-2.9375,-3.82568359375,-4.919921875,7.5877861976623535,-7.14503812789917,4.3053436279296875,-33.728736877441406,25.236154556274414,0.0,25.32984161376953,-24.3284912109375,16.025449752807617,-32.73270797729492,24.25672149658203,0.0
254,-2.9345703125,-3.82763671875,-4.9228515625,7.404580116271973,-7.4809160232543945,4.656488418579102,-33.73755645751953,25.201677322387695,0.0,25.366865158081055,-24.365896224975586,16.04873275756836,-32.716880798339844,24.239299774169922,0.0
259,-2.934326171875,-3.826171875,-4.935302734375,7.740458011627197,-7.389312744140625,4.748091697692871,-33.678672790527344,25.168243408203125,0.0,25.405567169189453,-24.402843475341797,16.072473526000977,-32.69816589355469,24.221651077270508,0.0
264,-2.936767578125,-3.82763671875,-4.931640625,7.297709941864014,-7.328244209289551,4.778625965118408,-33.697540283203125,25.19364356994629,0.0,25.44205665588379,-24.439485549926758,16.09636688232422,-32.68201446533203,24.204809188842773,0.0
269,-2.93359375,-3.827392578125,-4.929443359375,7.389312744140625,-7.160305500030518,4.671755790710449,-33.712039947509766,25.176450729370117,0.0,25.47900390625,-24.47528648376465,16.119726181030273,-32.66565704345703,24.188447952270508,0.0
274,-2.938720703125,-3.830810546875,-4.9248046875,7.358778476715088,-7.450381755828857,4.977099418640137,-33.7419319152832,25.220529556274414,0.0,25.515798568725586,-24.51253890991211,16.144611358642578,-32.64998245239258,24.171483993530273,0.0
279,-2.935791015625,-3.824462890625,-4.91796875,7.465648651123047,-7.068702220916748,4.488549709320068,-33.73208236694336,25.231422424316406,0.0,25.55312728881836,-24.547882080078125,16.16705322265625,-32.633548736572266,24.15658187866211,0.0
284,-2.93603515625,-3.82568359375,-4.923095703125,7.41984748840332,-7.526717662811279,4.58015251159668,-33.71961975097656,25.216257095336914,0.0,25.590227127075195,-24.58551597595215,16.18995475769043,-32.6170768737793,24.13909912109375,0.0
289,-2.935302734375,-3.826904296875,-4.9296875,7.4809160232543945,-7.099236488342285,4.549618244171143,-33.70366668701172,25.18967628479004,0.0,25.62763214111328,-24.62101173400879,16.212703704833984,-32.59999084472656,24.12323570251465,0.0
294,-2.937744140625,-3.826171875,-4.9248046875,7.343511581420898,-7.526717662811279,4.7633585929870605,-33.71218490600586,25.223270416259766,0.0,25.664350509643555,-24.658645629882812,16.236520767211914,-32.58372116088867,24.105850219726562,0.0
299,-2.935546875,-3.829833984375,-4.928955078125,7.282442569732666,-7.068702220916748,4.473282337188721,-33.726234436035156,25.18720245361328,0.0,25.700761795043945,-24.693988800048828,16.258886337280273,-32.56797409057617,24.0900821685791,0.0
304,-2.930908203125,-3.8232421875,-4.92822265625,7.43511438369751,-7.297709941864014,4.702290058135986,-33.69451141357422,25.168655395507812,0.0,25.737937927246094,-24.730478286743164,16.282398223876953,-32.55089569091797,24.07284927368164,0.0
309,-2.937255859375,-3.8251953125,-4.92724609375,7.41984748840332,-7.465648651123047,4.442748069763184,-33.69691467285156,25.214889526367188,0.0,25.77503776550293,-24.767807006835938,16.304611206054688,-32.533935546875,24.055593490600586,0.0
314,-2.931884765625,-3.82470703125,-4.926513671875,7.679389476776123,-7.496183395385742,4.641221523284912,-33.70911407470703,25.177600860595703,0.0,25.813434600830078,-24.805288314819336,16.327817916870117,-32.515899658203125,24.037565231323242,0.0
319,-2.93212890625,-3.82666015625,-4.92236328125,7.312977313995361,-7.206106662750244,4.717557430267334,-33.73851013183594,25.186796188354492,0.0,25.850000381469727,-24.841318130493164,16.35140609741211,-32.50016784667969,24.02114486694336,0.0
324,-2.93408203125,-3.823974609375,-4.9287109375,7.343511581420898,-7.328244209289551,4.778625965118408,-33.69015884399414,25.189579010009766,0.0,25.88671875,-24.877960205078125,16.37529945373535,-32.48346710205078,24.004167556762695,0.0
330,-2.945068359375,-3.82666015625,-4.924072265625,7.43511438369751,-7.206106662750244,4.717557430267334,-33.701141357421875,25.2793025970459,0.0,25.92389488220215,-24.913990020751953,16.398887634277344,-32.466495513916016,23.989246368408203,0.0
335,-2.939208984375,-3.825439453125,-4.922607421875,7.572519302368164,-7.206106662750244,4.7633585929870605,-33.71236038208008,25.242023468017578,0.0,25.969329833984375,-24.957225799560547,16.427467346191406,-32.44159698486328,23.966625213623047,0.0
340,-2.93798828125,-3.827392578125,-4.92236328125,7.5877861976623535,-7.404580116271973,4.748091697692871,-33.72971725463867,25.229280471801758,0.0,26.00726890563965,-24.99424934387207,16.451208114624023,-32.42448043823242,23.95000648498535,0.0
345,-2.938720703125,-3.826904296875,-4.915283203125,7.786259651184082,-7.618320465087891,4.549618244171143,-33.752681732177734,25.255666732788086,0.0,26.046199798583984,-25.03234100341797,16.473957061767578,-32.40673828125,23.932743072509766,0.0
350,-2.9365234375,-3.828857421875,-4.927490234375,7.618320465087891,-7.511450290679932,4.748091697692871,-33.72298812866211,25.20075225830078,0.0,26.084291458129883,-25.06989860534668,16.497697830200195,-32.38937759399414,23.91516876220703,0.0
355,-2.937255859375,-3.823974609375,-4.925537109375,7.2366414070129395,-7.038167953491211,4.29007625579834,-33.69524002075195,25.222322463989258,0.0,26.120473861694336,-25.10508918762207,16.519147872924805,-32.37348556518555,23.9002742767334,0.0
360,-2.93896484375,-3.824462890625,-4.922119140625,7.511450290679932,-7.43511438369751,4.610687255859375,-33.7081184387207,25.24367904663086,0.0,26.158031463623047,-25.14226531982422,16.54220199584961,-32.35642623901367,23.88372039794922,0.0
365,-2.93896484375,-3.828369140625,-4.919677734375,7.282442569732666,-7.404580116271973,4.3053436279296875,-33.74480438232422,25.24201202392578,0.0,26.194442749023438,-25.179288864135742,16.56372833251953,-32.34104537963867,23.867292404174805,0.0
370,-2.9365234375,-3.822021484375,-4.928466796875,7.007633686065674,-7.755725383758545,4.702290058135986,-33.67185974121094,25.21285629272461,0.0,26.229480743408203,-25.218067169189453,16.58724021911621,-32.32593536376953,23.848711013793945,0.0
375,-2.9345703125,-3.823974609375,-4.929931640625,7.557251930236816,-7.43511438369751,4.870229244232178,-33.684173583984375,25.189838409423828,0.0,26.26726722717285,-25.2552433013916,16.611591339111328,-32.308284759521484,23.83141326904297,0.0
380,-2.935791015625,-3.824462890625,-4.929931640625,7.770992279052734,-6.85496187210083,5.053435325622559,-33.684669494628906,25.19795799255371,0.0,26.306121826171875,-25.289518356323242,16.636857986450195,-32.28961181640625,23.817113876342773,0.0
385,-2.9345703125,-3.829345703125,-4.92578125,7.465648651123047,-7.129770755767822,4.473282337188721,-33.73775100708008,25.189781188964844,0.0,26.34345054626465,-25.325166702270508,16.659223556518555,-32.27323532104492,23.801326751708984,0.0
390,-2.935546875,-3.82666015625,-4.924072265625,7.4809160232543945,-7.190839767456055,4.6259541511535645,-33.723655700683594,25.207733154296875,0.0,26.380855560302734,-25.361120223999023,16.682353973388672,-32.256587982177734,23.785493850708008,0.0
395,-2.93798828125,-3.828125,-4.92333984375,7.43511438369751,-7.099236488342285,4.824427604675293,-33.73091125488281,25.224956512451172,0.0,26.418031692504883,-25.396615982055664,16.70647621154785,-32.24027633666992,23.770355224609375,0.0
400,-2.93994140625,-3.828369140625,-4.927734375,7.511450290679932,-6.961832046508789,4.656488418579102,-33.710575103759766,25.226818084716797,0.0,26.455589294433594,-25.431425094604492,16.729759216308594,-32.22331237792969,23.75591278076172,0.0
405,-2.937744140625,-3.82421875,-4.92724609375,7.41984748840332,-7.221374034881592,4.610687255859375,-33.68900680541992,25.22068214416504,0.0,26.49268913269043,-25.467531204223633,16.7528133392334,-32.20652770996094,23.740093231201172,0.0
411,-2.9345703125,-3.82275390625,-4.928466796875,7.41984748840332,-7.3740458488464355,4.381679534912109,-33.68153381347656,25.19658088684082,0.0,26.529788970947266,-25.50440216064453,16.774721145629883,-32.189659118652344,23.723201751708984,0.0
416,-2.93212890625,-3.823486328125,-4.93115234375,7.572519302368164,-7.2366414070129395,4.793893337249756,-33.68171310424805,25.169126510620117,0.0,26.575223922729492,-25.547822952270508,16.803483963012695,-32.164615631103516,23.69953727722168,0.0
421,-2.934814453125,-3.82373046875,-4.926513671875,7.5877861976623535,-7.206106662750244,4.748091697692871,-33.6954460144043,25.201759338378906,0.0,26.613162994384766,-25.583852767944336,16.827224731445312,-32.147281646728516,23.683712005615234,0.0
426,-2.93408203125,-3.825927734375,-4.91650390625,7.541984558105469,-7.221374034881592,4.458015441894531,-33.752079010009766,25.21946907043457,0.0,26.6508731842041,-25.619958877563477,16.84951400756836,-32.13093948364258,23.668052673339844,0.0
431,-2.9375,-3.829833984375,-4.928466796875,7.648854732513428,-6.992366313934326,4.534351348876953,-33.72356033325195,25.203245162963867,0.0,26.689117431640625,-25.65492057800293,16.8721866607666,-32.113704681396484,23.6533203125,0.0
436,-2.93115234375,-3.821533203125,-4.927490234375,7.4809160232543945,-7.312977313995361,4.793893337249756,-33.68501663208008,25.17624282836914,0.0,26.72652244567871,-25.691486358642578,16.896156311035156,-32.096832275390625,23.63665771484375,0.0
441,-2.932373046875,-3.830322265625,-4.928955078125,7.541984558105469,-7.2366414070129395,4.671755790710449,-33.737098693847656,25.162282943725586,0.0,26.764232635498047,-25.72766876220703,16.91951560974121,-32.08034133911133,23.62022590637207,0.0
446,-2.9375,-3.826904296875,-4.9306640625,7.282442569732666,-7.206106662750244,4.595419883728027,-33.694618225097656,25.203462600708008,0.0,26.800643920898438,-25.76369857788086,16.942493438720703,-32.064613342285156,23.6044864654541,0.0
451,-2.93359375,-3.824951171875,-4.923095703125,7.740458011627197,-7.404580116271973,4.824427604675293,-33.7203254699707,25.199481964111328,0.0,26.839345932006836,-25.800722122192383,16.966615676879883,-32.04695129394531,23.587732315063477,0.0
456,-2.9365234375,-3.826171875,-4.925537109375,7.297709941864014,-7.022900581359863,4.503816604614258,-33.71216583251953,25.2120418548584,0.0,26.875835418701172,-25.83583641052246,16.989133834838867,-32.03141403198242,23.57304573059082,0.0
461,-2.9375,-3.82470703125,-4.9287109375,7.343511581420898,-7.206106662750244,4.656488418579102,-33.68716049194336,25.213687896728516,0.0,26.912553787231445,-25.87186622619629,17.01241683959961,-32.015350341796875,23.557477951049805,0.0
466,-2.93701171875,-3.827392578125,-4.924072265625,7.648854732513428,-7.099236488342285,4.488549709320068,-33.725257873535156,25.2171573638916,0.0,26.95079803466797,-25.90736198425293,17.03485870361328,-31.998258590698242,23.54249382019043,0.0
471,-2.9345703125,-3.82421875,-4.925537109375,7.4809160232543945,-7.328244209289551,4.931297779083252,-33.70327377319336,25.201595306396484,0.0,26.988203048706055,-25.94400405883789,17.05951499938965,-31.981760025024414,23.526199340820312,0.0
476,-2.9365234375,-3.830322265625,-4.920654296875,7.648854732513428,-7.358778476715088,4.56488561630249,-33.76021194458008,25.2166690826416,0.0,27.026447296142578,-25.980798721313477,17.082340240478516,-31.96513557434082,23.509960174560547,0.0
481,-2.93701171875,-3.828857421875,-4.9267578125,7.206106662750244,-7.14503812789917,4.793893337249756,-33.724735260009766,25.20646858215332,0.0,27.062477111816406,-26.016523361206055,17.10630989074707,-31.950300216674805,23.49468231201172,0.0
486,-2.935546875,-3.828125,-4.922607421875,7.251908302307129,-7.41984748840332,4.809160232543945,-33.73958969116211,25.208642959594727,0.0,27.098735809326172,-26.05362319946289,17.130355834960938,-31.93541717529297,23.478086471557617,0.0
492,-2.937744140625,-3.82666015625,-4.919921875,7.4809160232543945,-7.053435325622559,5.114503860473633,-33.73490905761719,25.235868453979492,0.0,27.136140823364258,-26.088890075683594,17.155927658081055,-31.91935157775879,23.46364974975586,0.0
497,-2.93896484375,-3.8232421875,-4.9267578125,7.343511581420898,-7.114503860473633,4.335877895355225,-33.681304931640625,25.233346939086914,0.0,27.18020248413086,-26.131576538085938,17.181941986083984,-31.896142959594727,23.4418888092041,0.0
502,-2.93310546875,-3.82958984375,-4.924560546875,7.618320465087891,-7.251908302307129,4.5190839767456055,-33.747737884521484,25.181644439697266,0.0,27.218294143676758,-26.167835235595703,17.204538345336914,-31.879703521728516,23.425979614257812,0.0
507,-2.938232421875,-3.81884765625,-4.919921875,7.358778476715088,-7.511450290679932,4.4122138023376465,-33.6796989440918,25.256546020507812,0.0,27.255088806152344,-26.205392837524414,17.226598739624023,-31.86379623413086,23.409666061401367,0.0
512,-2.93212890625,-3.82958984375,-4.927734375,7.6946563720703125,-7.343511581420898,4.58015251159668,-33.73745346069336,25.165441513061523,0.0,27.293561935424805,-26.242111206054688,17.249500274658203,-31.846904754638672,23.39318084716797,0.0
517,-2.933349609375,-3.824462890625,-4.92724609375,7.251908302307129,-7.206106662750244,4.381679534912109,-33.70106887817383,25.187103271484375,0.0,27.32982063293457,-26.278141021728516,17.271408081054688,-31.83182716369629,23.377655029296875,0.0
522,-2.93359375,-3.830810546875,-4.933837890625,7.175572395324707,-7.282442569732666,4.885496139526367,-33.71824264526367,25.156787872314453,0.0,27.365697860717773,-26.314552307128906,17.295835494995117,-31.817333221435547,23.361440658569336,0.0
527,-2.939208984375,-3.8251953125,-4.9248046875,7.358778476715088,-7.083969593048096,4.534351348876953,-33.701969146728516,25.236404418945312,0.0,27.40249252319336,-26.349971771240234,17.31850814819336,-31.801761627197266,23.347122192382812,0.0
532,-2.935302734375,-3.8310546875,-4.93115234375,7.282442569732666,-7.404580116271973,4.839694499969482,-33.726539611816406,25.176589965820312,0.0,27.43890380859375,-26.386995315551758,17.34270668029785,-31.7868595123291,23.330570220947266,0.0
537,-2.93994140625,-3.82421875,-4.921875,7.389312744140625,-7.5877861976623535,4.977099418640137,-33.70508575439453,25.25223731994629,0.0,27.47585105895996,-26.42493438720703,17.367591857910156,-31.771207809448242,23.313976287841797,0.0
542,-2.936767578125,-3.8271484375,-4.92919921875,7.328244209289551,-7.190839767456055,4.85496187210083,-33.70383071899414,25.201520919799805,0.0,27.512493133544922,-26.460887908935547,17.39186668395996,-31.755870819091797,23.298831939697266,0.0
547,-2.937255859375,-3.825927734375,-4.923583984375,7.511450290679932,-7.160305500030518,4.885496139526367,-33.716487884521484,25.223541259765625,0.0,27.550050735473633,-26.496688842773438,17.41629409790039,-31.73978614807129,23.284099578857422,0.0
552,-2.935791015625,-3.825439453125,-4.928955078125,7.282442569732666,-7.358778476715088,4.076335906982422,-33.695289611816406,25.19856834411621,0.0,27.586462020874023,-26.533483505249023,17.436676025390625,-31.724639892578125,23.26813507080078,0.0
557,-2.93798828125,-3.8251953125,-4.924560546875,7.43511438369751,-7.43511438369751,4.687022686004639,-33.7058219909668,25.2279109954834,0.0,27.623638153076172,-26.570659637451172,17.460111618041992,-31.70886993408203,23.252138137817383,0.0
562,-2.93896484375,-3.82666015625,-4.92431640625,7.664122104644775,-7.297709941864014,4.427480697631836,-33.71460723876953,25.232751846313477,0.0,27.661958694458008,-26.607149124145508,17.482248306274414,-31.69209098815918,23.236906051635742,0.0
567,-2.936767578125,-3.82763671875,-4.93115234375,7.282442569732666,-7.526717662811279,4.610687255859375,-33.6994743347168,25.19500732421875,0.0,27.6983699798584,-26.64478302001953,17.50530242919922,-31.677082061767578,23.220170974731445,0.0
572,-2.933349609375,-3.8271484375,-4.927490234375,7.557251930236816,-6.961832046508789,4.85496187210083,-33.71866989135742,25.18059730529785,0.0,27.736156463623047,-26.67959213256836,17.529577255249023,-31.66093635559082,23.206127166748047,0.0
578,-2.935791015625,-3.822998046875,-4.92529296875,7.465648651123047,-7.572519302368164,4.6259541511535645,-33.69291305541992,25.214109420776367,0.0,27.78095054626465,-26.725027084350586,17.55733299255371,-31.637662887573242,23.181970596313477,0.0
583,-2.93701171875,-3.82861328125,-4.922607421875,7.740458011627197,-7.358778476715088,4.809160232543945,-33.739498138427734,25.218599319458008,0.0,27.819652557373047,-26.761821746826172,17.581378936767578,-31.621007919311523,23.166532516479492,0.0
588,-2.935791015625,-3.829345703125,-4.927001953125,7.847328186035156,-7.297709941864014,4.3053436279296875,-33.73002624511719,25.1955509185791,0.0,27.858888626098633,-26.798311233520508,17.6029052734375,-31.6037654876709,23.15118980407715,0.0
593,-2.93701171875,-3.825927734375,-4.92333984375,7.557251930236816,-7.404580116271973,4.641221523284912,-33.71803283691406,25.222389221191406,0.0,27.89667510986328,-26.83533477783203,17.62611198425293,-31.58788299560547,23.135623931884766,0.0
598,-2.934814453125,-3.824462890625,-4.931640625,7.2366414070129395,-7.175572395324707,4.732824325561523,-33.680206298828125,25.185840606689453,0.0,27.932857513427734,-26.871212005615234,17.649776458740234,-31.573238372802734,23.1208553314209,0.0
603,-2.93505859375,-3.832763671875,-4.921630859375,7.618320465087891,-7.511450290679932,4.396946430206299,-33.776676177978516,25.197616577148438,0.0,27.970949172973633,-26.908769607543945,17.67176055908203,-31.55769920349121,23.104570388793945,0.0
608,-2.93603515625,-3.82421875,-4.921630859375,7.4809160232543945,-7.3740458488464355,4.610687255859375,-33.715293884277344,25.223541259765625,0.0,28.00835418701172,-26.945640563964844,17.694814682006836,-31.542253494262695,23.08926773071289,0.0
613,-2.939453125,-3.827880859375,-4.9306640625,7.328244209289551,-7.175572395324707,4.488549709320068,-33.69675827026367,25.216020584106445,0.0,28.04499626159668,-26.981517791748047,17.717256546020508,-31.52741050720215,23.074907302856445,0.0
618,-2.936279296875,-3.827880859375,-4.92724609375,7.358778476715088,-7.541984558105469,4.473282337188721,-33.71778106689453,25.201717376708984,0.0,28.081790924072266,-27.019227981567383,17.739622116088867,-31.512653350830078,23.05861473083496,0.0
623,-2.934326171875,-3.827392578125,-4.9248046875,7.557251930236816,-7.221374034881592,4.442748069763184,-33.72869873046875,25.194913864135742,0.0,28.119577407836914,-27.055334091186523,17.7618350982666,-31.497047424316406,23.043888092041016,0.0
628,-2.9384765625,-3.826904296875,-4.924072265625,7.496183395385742,-7.312977313995361,4.229007720947266,-33.71841812133789,25.229232788085938,0.0,28.157058715820312,-27.091899871826172,17.78297996520996,-31.481678009033203,23.029071807861328,0.0
633,-2.935791015625,-3.82568359375,-4.931884765625,7.618320465087891,-7.404580116271973,4.610687255859375,-33.68537902832031,25.18985366821289,0.0,28.19515037536621,-27.128923416137695,17.806034088134766,-31.465415954589844,23.013450622558594,0.0
638,-2.935791015625,-3.823486328125,-4.916015625,7.450381755828857,-7.038167953491211,4.7633585929870605,-33.73307418823242,25.239017486572266,0.0,28.232402801513672,-27.164113998413086,17.829851150512695,-31.45049285888672,23.000160217285156,0.0
643,-2.932861328125,-3.823974609375,-4.926513671875,7.511450290679932,-7.175572395324707,4.992366313934326,-33.701744079589844,25.18653678894043,0.0,28.269960403442383,-27.19999122619629,17.854812622070312,-31.434995651245117,22.985700607299805,0.0
648,-2.93701171875,-3.829345703125,-4.924072265625,7.389312744140625,-6.992366313934326,4.56488561630249,-33.73875427246094,25.21291160583496,0.0,28.306907653808594,-27.234952926635742,17.87763786315918,-31.420494079589844,22.97243309020996,0.0
653,-2.935302734375,-3.83056640625,-4.9267578125,7.648854732513428,-7.206106662750244,4.687022686004639,-33.74058151245117,25.189910888671875,0.0,28.345151901245117,-27.27098274230957,17.901073455810547,-31.404752731323242,22.95790672302246,0.0
659,-2.936279296875,-3.82373046875,-4.923828125,7.5877861976623535,-7.312977313995361,4.732824325561523,-33.70262908935547,25.22028923034668,0.0,28.39067840576172,-27.314861297607422,17.92947006225586,-31.38152313232422,22.935972213745117,0.0
664,-2.934814453125,-3.826904296875,-4.9208984375,7.511450290679932,-7.175572395324707,4.458015441894531,-33.73965835571289,25.2105655670166,0.0,28.42823600769043,-27.350738525390625,17.951759338378906,-31.366649627685547,22.921972274780273,0.0
669,-2.93505859375,-3.827392578125,-4.91748046875,7.816793918609619,-7.312977313995361,4.458015441894531,-33.756019592285156,25.220897674560547,0.0,28.46731948852539,-27.387304306030273,17.974048614501953,-31.35045051574707,22.90741539001465,0.0
674,-2.9345703125,-3.82861328125,-4.919921875,7.664122104644775,-7.343511581420898,4.610687255859375,-33.75592803955078,25.20774269104004,0.0,28.505640029907227,-27.424022674560547,17.997102737426758,-31.335050582885742,22.892616271972656,0.0
679,-2.9345703125,-3.824462890625,-4.922119140625,7.633587837219238,-7.465648651123047,4.85496187210083,-33.718509674072266,25.210622787475586,0.0,28.543807983398438,-27.46135139465332,18.021377563476562,-31.319490432739258,22.877275466918945,0.0
684,-2.933349609375,-3.826416015625,-4.923095703125,7.4809160232543945,-7.2366414070129395,4.870229244232178,-33.73103332519531,25.1944637298584,0.0,28.581212997436523,-27.497533798217773,18.04572868347168,-31.30484390258789,22.86296272277832,0.0
689,-2.937744140625,-3.826904296875,-4.9267578125,7.41984748840332,-7.511450290679932,4.366412162780762,-33.70950698852539,25.216217041015625,0.0,28.61831283569336,-27.535091400146484,18.06756019592285,-31.290332794189453,22.847522735595703,0.0
694,-2.940673828125,-3.8271484375,-4.929931640625,7.43511438369751,-7.4809160232543945,4.824427604675293,-33.691715240478516,25.22882843017578,0.0,28.655488967895508,-27.57249641418457,18.09168243408203,-31.275615692138672,22.832393646240234,0.0
699,-2.936279296875,-3.830810546875,-4.92333984375,7.541984558105469,-7.114503860473633,5.007633686065674,-33.75351333618164,25.206268310546875,0.0,28.693199157714844,-27.608068466186523,18.11672019958496,-31.260971069335938,22.81891441345215,0.0
704,-2.933349609375,-3.82470703125,-4.92822265625,7.404580116271973,-7.328244209289551,4.687022686004639,-33.69888687133789,25.18384552001953,0.0,28.730222702026367,-27.644710540771484,18.140155792236328,-31.24654197692871,22.804197311401367,0.0
709,-2.93505859375,-3.82275390625,-4.927734375,7.496183395385742,-7.190839767456055,4.595419883728027,-33.68328094482422,25.202301025390625,0.0,28.767704010009766,-27.6806640625,18.16313362121582,-31.231552124023438,22.79037094116211,0.0
714,-2.938232421875,-3.82275390625,-4.92041015625,7.41984748840332,-7.251908302307129,4.5190839767456055,-33.70479965209961,25.246675491333008,0.0,28.8048038482666,-27.716922760009766,18.18572998046875,-31.21717643737793,22.776676177978516,0.0
719,-2.937744140625,-3.830078125,-4.9267578125,7.43511438369751,-7.511450290679932,4.824427604675293,-33.73143768310547,25.20932388305664,0.0,28.84197998046875,-27.754480361938477,18.20985221862793,-31.203001022338867,22.76138687133789,0.0
724,-2.9375,-3.823974609375,-4.930419921875,7.648854732513428,-7.282442569732666,4.687022686004639,-33.675331115722656,25.210498809814453,0.0,28.880224227905273,-27.790891647338867,18.233287811279297,-31.18729591369629,22.747289657592773,0.0
729,-2.937744140625,-3.823974609375,-4.920654296875,7.41984748840332,-7.206106662750244,4.778625965118408,-33.71343231201172,25.239662170410156,0.0,28.91732406616211,-27.826921463012695,18.25718116760254,-31.17311668395996,22.733867645263672,0.0
734,-2.933349609375,-3.82763671875,-4.91796875,7.541984558105469,-7.450381755828857,5.022900581359863,-33.75981903076172,25.206140518188477,0.0,28.955034255981445,-27.864173889160156,18.28229522705078,-31.15877914428711,22.718965530395508,0.0
740,-2.93212890625,-3.826904296875,-4.919189453125,7.618320465087891,-7.557251930236816,4.85496187210083,-33.7527961730957,25.195133209228516,0.0,29.000743865966797,-27.909517288208008,18.311424255371094,-31.136537551879883,22.6960391998291,0.0
745,-2.935546875,-3.825439453125,-4.913818359375,7.404580116271973,-7.526717662811279,4.6259541511535645,-33.755889892578125,25.239076614379883,0.0,29.03776741027832,-27.94715118408203,18.33455467224121,-31.123037338256836,22.681259155273438,0.0
750,-2.937255859375,-3.8271484375,-4.9306640625,7.648854732513428,-7.343511581420898,4.702290058135986,-33.69688034057617,25.20109748840332,0.0,29.076011657714844,-27.983869552612305,18.35806655883789,-31.10783576965332,22.66709327697754,0.0
755,-2.937255859375,-3.827880859375,-4.925537109375,7.450381755828857,-7.404580116271973,4.641221523284912,-33.72224807739258,25.213836669921875,0.0,29.113264083862305,-28.020893096923828,18.38127326965332,-31.093887329101562,22.65277671813965,0.0
760,-2.937255859375,-3.827392578125,-4.919189453125,7.679389476776123,-7.465648651123047,4.717557430267334,-33.74403762817383,25.232648849487305,0.0,29.151660919189453,-28.0582218170166,18.404861450195312,-31.079029083251953,22.638362884521484,0.0
765,-2.93505859375,-3.826904296875,-4.931884765625,7.41984748840332,-7.343511581420898,4.56488561630249,-33.69554138183594,25.181703567504883,0.0,29.18876075744629,-28.094940185546875,18.42768669128418,-31.06507682800293,22.6241512298584,0.0
770,-2.938232421875,-3.82568359375,-4.916748046875,7.175572395324707,-7.358778476715088,4.641221523284912,-33.739585876464844,25.250553131103516,0.0,29.224637985229492,-28.13173484802246,18.45089340209961,-31.05275535583496,22.610502243041992,0.0
775,-2.9365234375,-3.830078125,-4.9248046875,7.450381755828857,-7.267175674438477,4.641221523284912,-33.7420654296875,25.205604553222656,0.0,29.261890411376953,-28.16806983947754,18.47410011291504,-31.03911590576172,22.596956253051758,0.0
780,-2.93798828125,-3.824462890625,-4.930419921875,7.5877861976623535,-7.160305500030518,4.6259541511535645,-33.677555084228516,25.213111877441406,0.0,29.299829483032227,-28.20387077331543,18.497230529785156,-31.024272918701172,22.58403968811035,0.0
785,-2.93408203125,-3.827880859375,-4.92919921875,7.312977313995361,-7.267175674438477,4.870229244232178,-33.71522903442383,25.179744720458984,0.0,29.336395263671875,-28.240205764770508,18.521581649780273,-31.01116180419922,22.570337295532227,0.0
790,-2.936767578125,-3.82666015625,-4.9228515625,7.526717662811279,-7.496183395385742,4.610687255859375,-33.725608825683594,25.220325469970703,0.0,29.3740291595459,-28.277687072753906,18.544635772705078,-30.997112274169922,22.55588722229004,0.0
795,-2.936767578125,-3.82080078125,-4.9267578125,7.404580116271973,-7.389312744140625,4.488549709320068,-33.66960525512695,25.222124099731445,0.0,29.411052703857422,-28.314634323120117,18.56707763671875,-30.98322868347168,22.54202651977539,0.0
800,-2.936279296875,-3.8291015625,-4.92236328125,7.541984558105469,-7.221374034881592,4.748091697692871,-33.745574951171875,25.212711334228516,0.0,29.448762893676758,-28.350740432739258,18.590818405151367,-30.96935272216797,22.528959274291992,0.0
805,-2.930908203125,-3.8251953125,-4.925048828125,7.297709941864014,-7.297709941864014,4.6259541511535645,-33.72060775756836,25.17328643798828,0.0,29.485252380371094,-28.387229919433594,18.613948822021484,-30.956514358520508,22.515213012695312,0.0
810,-2.936767578125,-3.824462890625,-4.9228515625,7.816793918609619,-7.43511438369751,4.610687255859375,-33.710411071777344,25.2251033782959,0.0,29.524335861206055,-28.424406051635742,18.63700294494629,-30.94104766845703,22.501266479492188,0.0
815,-2.9375,-3.825439453125,-4.924560546875,7.175572395324707,-7.129770755767822,4.641221523284912,-33.70866394042969,25.22370719909668,0.0,29.560213088989258,-28.460054397583008,18.66020965576172,-30.928800582885742,22.48886489868164,0.0
821,-2.933349609375,-3.825927734375,-4.921142578125,7.6946563720703125,-7.328244209289551,4.595419883728027,-33.73540115356445,25.200984954833984,0.0,29.606380462646484,-28.504024505615234,18.687782287597656,-30.90665626525879,22.46810531616211,0.0
826,-2.934814453125,-3.8271484375,-4.927490234375,7.450381755828857,-7.343511581420898,4.809160232543945,-33.7152099609375,25.191612243652344,0.0,29.643632888793945,-28.540742874145508,18.711828231811523,-30.893293380737305,22.454557418823242,0.0
831,-2.93896484375,-3.8232421875,-4.92041015625,7.450381755828857,-7.312977313995361,4.809160232543945,-33.706443786621094,25.251121520996094,0.0,29.680885314941406,-28.577308654785156,18.73587417602539,-30.879894256591797,22.441699981689453,0.0
836,-2.934814453125,-3.82958984375,-4.925048828125,7.9083967208862305,-7.282442569732666,4.931297779083252,-33.741764068603516,25.193132400512695,0.0,29.720426559448242,-28.613719940185547,18.760530471801758,-30.864559173583984,22.428546905517578,0.0
841,-2.93798828125,-3.826904296875,-4.924560546875,7.511450290679932,-7.389312744140625,5.083969593048096,-33.71763610839844,25.224197387695312,0.0,29.757984161376953,-28.650667190551758,18.78594970703125,-30.851043701171875,22.415159225463867,0.0
846,-2.940185546875,-3.829833984375,-4.926025390625,7.755725383758545,-7.41984748840332,5.068702220916748,-33.72688674926758,25.230249404907227,0.0,29.796762466430664,-28.687767028808594,18.81129264831543,-30.836435317993164,22.401710510253906,0.0
851,-2.93896484375,-3.829345703125,-4.927001953125,7.5877861976623535,-7.358778476715088,4.656488418579102,-33.722530364990234,25.219406127929688,0.0,29.834701538085938,-28.72456169128418,18.834575653076172,-30.82267189025879,22.388517379760742,0.0
856,-2.93505859375,-3.826416015625,-4.9208984375,7.72519063949585,-7.312977313995361,4.442748069763184,-33.7357063293457,25.213464736938477,0.0,29.873327255249023,-28.761127471923828,18.856788635253906,-30.808380126953125,22.37554168701172,0.0
861,-2.93798828125,-3.827880859375,-4.9267578125,7.404580116271973,-7.541984558105469,4.793893337249756,-33.71567916870117,25.215930938720703,0.0,29.910350799560547,-28.798837661743164,18.88075828552246,-30.79555892944336,22.36149024963379,0.0
866,-2.9326171875,-3.825927734375,-4.92724609375,7.4809160232543945,-7.496183395385742,4.992366313934326,-33.71292495727539,25.178417205810547,0.0,29.947755813598633,-28.836318969726562,18.905719757080078,-30.782373428344727,22.3474063873291,0.0
871,-2.9365234375,-3.82763671875,-4.92578125,7.4809160232543945,-7.267175674438477,4.839694499969482,-33.7213249206543,25.20817756652832,0.0,29.98516082763672,-28.87265396118164,18.92991828918457,-30.769296646118164,22.334753036499023,0.0
876,-2.931396484375,-3.828125,-4.91796875,7.572519302368164,-7.175572395324707,4.7633585929870605,-33.767818450927734,25.190378189086914,0.0,30.02302360534668,-28.908531188964844,18.9537353515625,-30.75618553161621,22.322446823120117,0.0
881,-2.93701171875,-3.824462890625,-4.925048828125,7.328244209289551,-7.450381755828857,4.671755790710449,-33.70112991333008,25.22079086303711,0.0,30.05966567993164,-28.945783615112305,18.977094650268555,-30.74378204345703,22.309059143066406,0.0
886,-2.935546875,-3.824951171875,-4.91748046875,7.312977313995361,-7.267175674438477,4.931297779083252,-33.73797607421875,25.229887008666992,0.0,30.09623146057129,-28.982118606567383,19.001750946044922,-30.731788635253906,22.29669952392578,0.0
891,-2.93603515625,-3.8291015625,-4.92041015625,7.603053569793701,-7.72519063949585,4.702290058135986,-33.75389862060547,25.21633529663086,0.0,30.134246826171875,-29.02074432373047,19.0252628326416,-30.718517303466797,22.281993865966797,0.0
896,-2.935546875,-3.825927734375,-4.930419921875,7.526717662811279,-7.14503812789917,4.900763511657715,-33.69343948364258,25.19158172607422,0.0,30.1718807220459,-29.056468963623047,19.049766540527344,-30.70517921447754,22.270023345947266,0.0
902,-2.937744140625,-3.82470703125,-4.921142578125,7.541984558105469,-7.450381755828857,4.885496139526367,-33.7165641784668,25.23670196533203,0.0,30.209590911865234,-29.093721389770508,19.074193954467773,-30.69199562072754,22.256935119628906,0.0
907,-2.94189453125,-3.82958984375,-4.92578125,7.511450290679932,-7.297709941864014,4.6259541511535645,-33.72212600708008,25.24430274963379,0.0,30.25465965270996,-29.137508392333984,19.10194969177246,-30.671659469604492,22.23752784729004,0.0
912,-2.938232421875,-3.82666015625,-4.919921875,7.633587837219238,-7.038167953491211,4.335877895355225,-33.7337532043457,25.239540100097656,0.0,30.292827606201172,-29.172698974609375,19.123628616333008,-30.658363342285156,22.226703643798828,0.0
917,-2.9365234375,-3.829833984375,-4.924560546875,7.557251930236816,-7.099236488342285,4.259541988372803,-33.74134826660156,25.206815719604492,0.0,30.33061408996582,-29.208194732666016,19.144926071166992,-30.645549774169922,22.21533966064453,0.0
922,-2.9365234375,-3.8271484375,-4.925537109375,7.358778476715088,-7.114503860473633,4.56488561630249,-33.71891784667969,25.20992088317871,0.0,30.367408752441406,-29.24376678466797,19.16775131225586,-30.633583068847656,22.203956604003906,0.0
927,-2.93408203125,-3.82958984375,-4.9248046875,7.832061290740967,-7.175572395324707,4.595419883728027,-33.74446105957031,25.18830680847168,0.0,30.40656852722168,-29.279644012451172,19.19072914123535,-30.6195068359375,22.192129135131836,0.0
932,-2.935546875,-3.826904296875,-4.928466796875,7.618320465087891,-7.2366414070129395,4.931297779083252,-33.70792770385742,25.194921493530273,0.0,30.444660186767578,-29.315826416015625,19.21538543701172,-30.606252670288086,22.18008804321289,0.0
937,-2.936279296875,-3.82666015625,-4.924072265625,7.648854732513428,-7.328244209289551,5.114503860473633,-33.721923828125,25.213241577148438,0.0,30.4829044342041,-29.352468490600586,19.240957260131836,-30.59300422668457,22.167774200439453,0.0
942,-2.937744140625,-3.827880859375,-4.926025390625,7.618320465087891,-7.2366414070129395,4.977099418640137,-33.71916198730469,25.216144561767578,0.0,30.52099609375,-29.38865089416504,19.26584243774414,-30.579931259155273,22.15597915649414,0.0
947,-2.938720703125,-3.82763671875,-4.923095703125,7.648854732513428,-7.541984558105469,4.961832046508789,-33.72677230834961,25.232208251953125,0.0,30.559240341186523,-29.426361083984375,19.290651321411133,-30.56681251525879,22.142831802368164,0.0
952,-2.940185546875,-3.8251953125,-4.92333984375,7.312977313995361,-7.282442569732666,4.778625965118408,-33.70546340942383,25.247846603393555,0.0,30.595806121826172,-29.462772369384766,19.314544677734375,-30.55523681640625,22.13114356994629,0.0
957,-2.934814453125,-3.8232421875,-4.922607421875,7.328244209289551,-7.328244209289551,4.748091697692871,-33.70755386352539,25.213747024536133,0.0,30.632448196411133,-29.499414443969727,19.338285446166992,-30.543636322021484,22.118995666503906,0.0
962,-2.9384765625,-3.824951171875,-4.930908203125,7.679389476776123,-7.267175674438477,4.885496139526367,-33.67784881591797,25.21435546875,0.0,30.67084503173828,-29.535749435424805,19.362712860107422,-30.53009796142578,22.10719871520996,0.0
967,-2.939453125,-3.828857421875,-4.931396484375,7.282442569732666,-7.053435325622559,4.396946430206299,-33.70060729980469,25.211856842041016,0.0,30.707256317138672,-29.571016311645508,19.38469696044922,-30.51875877380371,22.096479415893555,0.0
972,-2.935791015625,-3.826904296875,-4.92724609375,7.70992374420166,-7.648854732513428,4.656488418579102,-33.71218490600586,25.200166702270508,0.0,30.745805740356445,-29.60926055908203,19.40797996520996,-30.505422592163086,22.082744598388672,0.0
977,-2.935302734375,-3.826171875,-4.9306640625,7.5877861976623535,-7.389312744140625,4.671755790710449,-33.69473648071289,25.188535690307617,0.0,30.78374481201172,-29.646207809448242,19.431339263916016,-30.492605209350586,22.070261001586914,0.0
983,-2.936279296875,-3.821044921875,-4.922607421875,7.206106662750244,-7.511450290679932,4.488549709320068,-33.68888854980469,25.229543685913086,0.0,30.819774627685547,-29.683765411376953,19.453781127929688,-30.4816837310791,22.057537078857422,0.0
988,-2.935302734375,-3.831787109375,-4.927490234375,7.282442569732666,-7.389312744140625,4.85496187210083,-33.74610900878906,25.185218811035156,0.0,30.86347007751465,-29.72810173034668,19.48291015625,-30.463695526123047,22.037851333618164,0.0
993,-2.938720703125,-3.82763671875,-4.92138671875,7.740458011627197,-7.221374034881592,5.068702220916748,-33.733543395996094,25.236988067626953,0.0,30.902172088623047,-29.76420783996582,19.50825309753418,-30.450651168823242,22.02683448791504,0.0
998,-2.93408203125,-3.8251953125,-4.9248046875,7.526717662811279,-7.404580116271973,4.900763511657715,-33.71408462524414,25.19784927368164,0.0,30.93980598449707,-29.801231384277344,19.532756805419922,-30.43856430053711,22.014638900756836,0.0
1003,-2.938232421875,-3.827880859375,-4.923095703125,7.175572395324707,-7.5877861976623535,4.778625965118408,-33.7296142578125,25.22800636291504,0.0,30.975683212280273,-29.839170455932617,19.556650161743164,-30.428382873535156,22.001811981201172,0.0
1008,-2.937744140625,-3.83203125,-4.92236328125,7.618320465087891,-7.618320465087891,4.961832046508789,-33.762351989746094,25.217357635498047,0.0,31.013774871826172,-29.877262115478516,19.581459045410156,-30.416282653808594,21.988800048828125,0.0
1013,-2.93603515625,-3.825439453125,-4.929443359375,7.72519063949585,-7.3740458488464355,4.641221523284912,-33.692779541015625,25.199039459228516,0.0,31.052400588989258,-29.914133071899414,19.604665756225586,-30.403160095214844,21.97690773010254,0.0
1018,-2.93701171875,-3.827392578125,-4.92333984375,7.297709941864014,-7.511450290679932,4.656488418579102,-33.72815704345703,25.21920394897461,0.0,31.088890075683594,-29.951690673828125,19.627948760986328,-30.392478942871094,21.96453285217285,0.0
1023,-2.935546875,-3.829345703125,-4.9267578125,7.541984558105469,-7.465648651123047,4.641221523284912,-33.731571197509766,25.19439697265625,0.0,31.12660026550293,-29.9890193939209,19.651155471801758,-30.380645751953125,21.952241897583008,0.0
1028,-2.935791015625,-3.8232421875,-4.91650390625,7.328244209289551,-7.41984748840332,4.885496139526367,-33.72944641113281,25.238182067871094,0.0,31.16324234008789,-30.026119232177734,19.675582885742188,-30.369897842407227,21.94055938720703,0.0
1033,-2.9375,-3.826416015625,-4.9208984375,7.267175674438477,-7.358778476715088,4.687022686004639,-33.72993087768555,25.231828689575195,0.0,31.19957733154297,-30.06291389465332,19.699018478393555,-30.3594913482666,21.92917251586914,0.0
1038,-2.933349609375,-3.827880859375,-4.929443359375,7.496183395385742,-7.43511438369751,4.595419883728027,-33.71598815917969,25.173555374145508,0.0,31.237058639526367,-30.10009002685547,19.721996307373047,-30.34787368774414,21.917001724243164,0.0
1043,-2.935791015625,-3.826171875,-4.914794921875,7.70992374420166,-7.526717662811279,4.687022686004639,-33.756500244140625,25.236583709716797,0.0,31.27560806274414,-30.137723922729492,19.745431900024414,-30.33554458618164,21.904903411865234,0.0
1048,-2.93896484375,-3.824951171875,-4.930419921875,7.770992279052734,-7.282442569732666,4.58015251159668,-33.67863082885742,25.219390869140625,0.0,31.314462661743164,-30.174135208129883,19.768333435058594,-30.322368621826172,21.89393424987793,0.0
1053,-2.936279296875,-3.828125,-4.921142578125,7.297709941864014,-7.541984558105469,5.099236488342285,-33.74366760253906,25.218246459960938,0.0,31.3509521484375,-30.21184539794922,19.7938289642334,-30.31208610534668,21.88170623779297,0.0
1058,-2.93896484375,-3.827392578125,-4.92578125,7.2366414070129395,-7.190839767456055,4.687022686004639,-33.7138671875,25.22706413269043,0.0,31.387134552001953,-30.247798919677734,19.817264556884766,-30.301916122436523,21.871335983276367,0.0
1064,-2.93603515625,-3.82666015625,-4.92529296875,7.603053569793701,-7.526717662811279,4.717557430267334,-33.7176628112793,25.207992553710938,0.0,31.42514991760254,-30.285432815551758,19.840852737426758,-30.289987564086914,21.859188079833984,0.0
1069,-2.938720703125,-3.823974609375,-4.924560546875,7.633587837219238,-7.358778476715088,4.6259541511535645,-33.695648193359375,25.23607063293457,0.0,31.470951080322266,-30.329586029052734,19.868608474731445,-30.27027702331543,21.840896606445312,0.0
1074,-2.935791015625,-3.82861328125,-4.924072265625,7.4809160232543945,-7.4809160232543945,4.6259541511535645,-33.73657989501953,25.205326080322266,0.0,31.50835609436035,-30.36699104309082,19.891738891601562,-30.259313583374023,21.829164505004883,0.0
1079,-2.937255859375,-3.8203125,-4.9208984375,7.679389476776123,-7.221374034881592,4.732824325561523,-33.68828201293945,25.243270874023438,0.0,31.5467529296875,-30.40309715270996,19.915403366088867,-30.247039794921875,21.81905174255371,0.0
1084,-2.93798828125,-3.824951171875,-4.926513671875,7.618320465087891,-7.557251930236816,4.56488561630249,-33.69639587402344,25.222976684570312,0.0,31.5848445892334,-30.44088363647461,19.938228607177734,-30.235177993774414,21.807151794433594,0.0
1089,-2.932861328125,-3.828125,-4.926513671875,7.450381755828857,-7.190839767456055,4.702290058135986,-33.73044204711914,25.177532196044922,0.0,31.62209701538086,-30.476837158203125,19.961740493774414,-30.224451065063477,21.796775817871094,0.0
1094,-2.93505859375,-3.828369140625,-4.9208984375,7.496183395385742,-7.328244209289551,4.916030406951904,-33.749210357666016,25.209217071533203,0.0,31.659578323364258,-30.513479232788086,19.98632049560547,-30.213674545288086,21.78598976135254,0.0
1099,-2.9365234375,-3.826904296875,-4.9189453125,7.5877861976623535,-6.977099418640137,4.442748069763184,-33.74336242675781,25.228885650634766,0.0,31.69751739501953,-30.548364639282227,20.008533477783203,-30.202438354492188,21.77713394165039,0.0
1104,-2.935791015625,-3.827880859375,-4.924072265625,7.41984748840332,-7.267175674438477,4.977099418640137,-33.73151779174805,25.20691680908203,0.0,31.734617233276367,-30.584699630737305,20.033418655395508,-30.191987991333008,21.766700744628906,0.0
1109,-2.937255859375,-3.824951171875,-4.919921875,7.572519302368164,-7.358778476715088,4.671755790710449,-33.724246978759766,25.235912322998047,0.0,31.772480010986328,-30.62149429321289,20.056777954101562,-30.180763244628906,21.756065368652344,0.0
1114,-2.93505859375,-3.82421875,-4.93505859375,7.679389476776123,-7.328244209289551,4.56488561630249,-33.6644172668457,25.17865753173828,0.0,31.810876846313477,-30.65813636779785,20.07960319519043,-30.168603897094727,21.745193481445312,0.0
1119,-2.93994140625,-3.825439453125,-4.925537109375,7.496183395385742,-7.129770755767822,4.641221523284912,-33.69902801513672,25.239330291748047,0.0,31.848358154296875,-30.693784713745117,20.10280990600586,-30.15766143798828,21.735801696777344,0.0
1124,-2.93505859375,-3.82861328125,-4.92431640625,7.328244209289551,-7.511450290679932,4.427480697631836,-33.737342834472656,25.199134826660156,0.0,31.885000228881836,-30.731342315673828,20.12494659423828,-30.147878646850586,21.724246978759766,0.0
1129,-2.9365234375,-3.8212890625,-4.923828125,7.083969593048096,-7.022900581359863,4.702290058135986,-33.68516159057617,25.227432250976562,0.0,31.920419692993164,-30.766456604003906,20.14845848083496,-30.13895606994629,21.715373992919922,0.0
1134,-2.934814453125,-3.8232421875,-4.924560546875,7.618320465087891,-7.41984748840332,4.7633585929870605,-33.69981002807617,25.208282470703125,0.0,31.958511352539062,-30.803556442260742,20.17227554321289,-30.12751579284668,21.704416275024414,0.0
1139,-2.933837890625,-3.824951171875,-4.930419921875,7.221374034881592,-7.526717662811279,4.671755790710449,-33.69071960449219,25.180849075317383,0.0,31.994617462158203,-30.841190338134766,20.195634841918945,-30.118026733398438,21.692768096923828,0.0
1145,-2.932861328125,-3.824951171875,-4.918701171875,7.496183395385742,-7.083969593048096,4.473282337188721,-33.7394905090332,25.20625877380371,0.0,32.03209686279297,-30.876609802246094,20.218000411987305,-30.10756492614746,21.683555603027344,0.0
1150,-2.935791015625,-3.83056640625,-4.9287109375,7.557251930236816,-7.465648651123047,4.702290058135986,-33.731685638427734,25.188129425048828,0.0,32.07744216918945,-30.921403884887695,20.246213912963867,-30.089351654052734,21.665002822875977,0.0
1155,-2.943359375,-3.83056640625,-4.928955078125,7.786259651184082,-7.206106662750244,4.931297779083252,-33.71284866333008,25.244306564331055,0.0,32.11637496948242,-30.957433700561523,20.270870208740234,-30.07745933532715,21.655664443969727,0.0
1160,-2.938232421875,-3.82666015625,-4.926513671875,7.511450290679932,-7.328244209289551,4.503816604614258,-33.70763397216797,25.221099853515625,0.0,32.1539306640625,-30.994075775146484,20.29338836669922,-30.06694221496582,21.645578384399414,0.0
1165,-2.935302734375,-3.826904296875,-4.927734375,7.450381755828857,-7.099236488342285,4.595419883728027,-33.711402893066406,25.195131301879883,0.0,32.19118118286133,-31.029571533203125,20.31636619567871,-30.056795120239258,21.636476516723633,0.0
1170,-2.935546875,-3.826904296875,-4.926025390625,7.465648651123047,-7.404580116271973,4.427480697631836,-33.71760177612305,25.201744079589844,0.0,32.22850799560547,-31.06659507751465,20.338502883911133,-30.046655654907227,21.625938415527344,0.0
1175,-2.93115234375,-3.8251953125,-4.922607421875,7.511450290679932,-7.358778476715088,4.1984734535217285,-33.72971725463867,25.18194580078125,0.0,32.26606369018555,-31.103389739990234,20.359495162963867,-30.03641700744629,21.615524291992188,0.0
1180,-2.93359375,-3.82470703125,-4.9248046875,7.389312744140625,-7.2366414070129395,4.427480697631836,-33.711856842041016,25.195236206054688,0.0,32.303009033203125,-31.139572143554688,20.38163185119629,-30.026691436767578,21.60585594177246,0.0
1185,-2.9375,-3.824462890625,-4.92236328125,7.72519063949585,-7.175572395324707,4.85496187210083,-33.71061325073242,25.231977462768555,0.0,32.341636657714844,-31.17544937133789,20.405906677246094,-30.01532745361328,21.5967960357666,0.0
1190,-2.93603515625,-3.82568359375,-4.92724609375,7.41984748840332,-7.297709941864014,4.396946430206299,-33.70317077636719,25.20465087890625,0.0,32.37873458862305,-31.211938858032227,20.42789077758789,-30.005470275878906,21.586959838867188,0.0
1195,-2.935546875,-3.829345703125,-4.919677734375,7.358778476715088,-7.496183395385742,4.839694499969482,-33.759647369384766,25.21417808532715,0.0,32.41552734375,-31.249420166015625,20.452089309692383,-29.996366500854492,21.57624626159668,0.0
1200,-2.939208984375,-3.82763671875,-4.92919921875,7.6946563720703125,-7.221374034881592,4.916030406951904,-33.701446533203125,25.21881103515625,0.0,32.454002380371094,-31.285526275634766,20.476669311523438,-29.98520278930664,21.56697654724121,0.0
1205,-2.938232421875,-3.823974609375,-4.925048828125,7.496183395385742,-7.251908302307129,4.885496139526367,-33.69486999511719,25.231033325195312,0.0,32.49148178100586,-31.32178497314453,20.501096725463867,-29.97502326965332,21.557680130004883,0.0
1210,-2.937255859375,-3.828369140625,-4.923828125,7.9083967208862305,-7.358778476715088,4.671755790710449,-33.73239517211914,25.217552185058594,0.0,32.53102493286133,-31.358579635620117,20.524456024169922,-29.96311378479004,21.547786712646484,0.0
1215,-2.938720703125,-3.82568359375,-4.923095703125,7.511450290679932,-7.083969593048096,4.58015251159668,-33.7132682800293,25.2364559173584,0.0,32.568580627441406,-31.393999099731445,20.5473575592041,-29.953086853027344,21.53943634033203,0.0
1220,-2.938232421875,-3.824951171875,-4.92333984375,7.557251930236816,-7.541984558105469,4.458015441894531,-33.70839309692383,25.233692169189453,0.0,32.60636520385742,-31.43170928955078,20.56964683532715,-29.942838668823242,21.528820037841797,0.0
1225,-2.934814453125,-3.827880859375,-4.918701171875,7.41984748840332,-7.282442569732666,4.732824325561523,-33.755130767822266,25.214584350585938,0.0,32.643463134765625,-31.468120574951172,20.593311309814453,-29.933652877807617,21.519399642944336,0.0
1231,-2.933349609375,-3.8271484375,-4.925048828125,7.465648651123047,-7.343511581420898,4.702290058135986,-33.72835159301758,25.187416076660156,0.0,32.688255310058594,-31.512182235717773,20.621524810791016,-29.9167423248291,21.502296447753906,0.0
1236,-2.93701171875,-3.82763671875,-4.9326171875,7.404580116271973,-7.160305500030518,4.56488561630249,-33.69309997558594,25.192750930786133,0.0,32.725276947021484,-31.547983169555664,20.644350051879883,-29.907379150390625,21.4935245513916,0.0
1241,-2.932861328125,-3.826416015625,-4.927978515625,7.358778476715088,-7.43511438369751,4.58015251159668,-33.71282196044922,25.177148818969727,0.0,32.76206970214844,-31.585159301757812,20.667251586914062,-29.898422241210938,21.483306884765625,0.0
1246,-2.935546875,-3.826171875,-4.92919921875,7.72519063949585,-7.282442569732666,4.27480936050415,-33.6999626159668,25.1944637298584,0.0,32.800697326660156,-31.621570587158203,20.68862533569336,-29.887588500976562,21.474016189575195,0.0
1251,-2.9384765625,-3.824951171875,-4.927734375,7.603053569793701,-7.4809160232543945,4.732824325561523,-33.69041061401367,25.22323226928711,0.0,32.83871078491211,-31.65897560119629,20.712289810180664,-29.877338409423828,21.4639835357666,0.0
1256,-2.9384765625,-3.82470703125,-4.92724609375,7.404580116271973,-7.038167953491211,4.900763511657715,-33.69065475463867,25.225128173828125,0.0,32.875732421875,-31.69416618347168,20.736793518066406,-29.86811637878418,21.456205368041992,0.0
1261,-2.936767578125,-3.826416015625,-4.92041015625,7.43511438369751,-7.770992279052734,4.7633585929870605,-33.73359680175781,25.227685928344727,0.0,32.912906646728516,-31.733020782470703,20.760610580444336,-29.859088897705078,21.444833755493164,0.0
1266,-2.93505859375,-3.8251953125,-4.922607421875,7.43511438369751,-7.3740458488464355,4.351145267486572,-33.72048568725586,25.21133804321289,0.0,32.95008087158203,-31.7698917388916,20.782365798950195,-29.85000228881836,21.435365676879883,0.0
1271,-2.931396484375,-3.822265625,-4.932861328125,7.938931465148926,-7.404580116271973,4.503816604614258,-33.66822814941406,25.16148567199707,0.0,32.989776611328125,-31.806915283203125,20.80488395690918,-29.83807373046875,21.425426483154297,0.0
1276,-2.935546875,-3.829833984375,-4.920654296875,7.526717662811279,-7.755725383758545,4.442748069763184,-33.75914764404297,25.210386276245117,0.0,33.027408599853516,-31.845693588256836,20.827096939086914,-29.828901290893555,21.414138793945312,0.0
1281,-2.93505859375,-3.828369140625,-4.92578125,7.557251930236816,-7.389312744140625,4.381679534912109,-33.7298469543457,25.195573806762695,0.0,33.06519317626953,-31.882640838623047,20.8490047454834,-29.81940269470215,21.40461540222168,0.0
1286,-2.938232421875,-3.82470703125,-4.926513671875,7.618320465087891,-7.312977313995361,4.6259541511535645,-33.694129943847656,25.225341796875,0.0,33.1032829284668,-31.919206619262695,20.872135162353516,-29.809383392333984,21.39572525024414,0.0
1291,-2.937255859375,-3.831298828125,-4.927001953125,7.343511581420898,-7.328244209289551,4.702290058135986,-33.74005889892578,25.202320098876953,0.0,33.13999938964844,-31.955848693847656,20.895647048950195,-29.80109977722168,21.386629104614258,0.0
1296,-2.933349609375,-3.82666015625,-4.92138671875,7.358778476715088,-7.312977313995361,4.656488418579102,-33.739498138427734,25.19870948791504,0.0,33.17679214477539,-31.992414474487305,20.918930053710938,-29.792768478393555,21.377620697021484,0.0
1301,-2.939697265625,-3.8271484375,-4.921875,7.832061290740967,-6.870229244232178,4.58015251159668,-33.725921630859375,25.24402618408203,0.0,33.2159538269043,-32.026763916015625,20.941831588745117,-29.78202247619629,21.371171951293945,0.0
1306,-2.935302734375,-3.82275390625,-4.9208984375,7.41984748840332,-7.664122104644775,4.793893337249756,-33.70979309082031,25.223264694213867,0.0,33.2530517578125,-32.065086364746094,20.965801239013672,-29.773256301879883,21.360652923583984,0.0
1312,-2.93603515625,-3.82568359375,-4.925048828125,7.618320465087891,-7.43511438369751,4.748091697692871,-33.71187973022461,25.210796356201172,0.0,33.298763275146484,-32.10969543457031,20.99428939819336,-29.75606918334961,21.343921661376953,0.0
1317,-2.935546875,-3.82568359375,-4.927978515625,7.190839767456055,-7.14503812789917,4.56488561630249,-33.70142364501953,25.198932647705078,0.0,33.334716796875,-32.14542007446289,21.017114639282227,-29.748586654663086,21.336021423339844,0.0
1322,-2.93701171875,-3.831298828125,-4.92236328125,7.4809160232543945,-7.282442569732666,4.778625965118408,-33.75902557373047,25.213441848754883,0.0,33.37211990356445,-32.18183135986328,21.04100799560547,-29.740100860595703,21.327571868896484,0.0
1327,-2.93798828125,-3.826904296875,-4.925537109375,7.816793918609619,-6.992366313934326,4.534351348876953,-33.713768005371094,25.221466064453125,0.0,33.41120529174805,-32.216793060302734,21.06368064880371,-29.729658126831055,21.32065200805664,0.0
1332,-2.93505859375,-3.828369140625,-4.927734375,7.297709941864014,-7.2366414070129395,4.56488561630249,-33.722103118896484,25.19011688232422,0.0,33.44769287109375,-32.25297546386719,21.086505889892578,-29.721899032592773,21.312320709228516,0.0
1337,-2.936279296875,-3.832275390625,-4.92724609375,7.679389476776123,-7.5877861976623535,4.595419883728027,-33.74814224243164,25.192180633544922,0.0,33.48609161376953,-32.29091262817383,21.10948371887207,-29.712459564208984,21.302291870117188,0.0
1342,-2.938720703125,-3.826904296875,-4.927978515625,7.3740458488464355,-7.2366414070129395,4.595419883728027,-33.702369689941406,25.220144271850586,0.0,33.5229606628418,-32.32709503173828,21.132461547851562,-29.704248428344727,21.294252395629883,0.0
1347,-2.933349609375,-3.829345703125,-4.91943359375,7.267175674438477,-7.175572395324707,4.641221523284912,-33.76581954956055,25.19832992553711,0.0,33.559295654296875,-32.362972259521484,21.155668258666992,-29.697053909301758,21.286392211914062,0.0
1352,-2.938232421875,-3.82275390625,-4.925048828125,7.3740458488464355,-7.389312744140625,4.641221523284912,-33.686424255371094,25.233686447143555,0.0,33.59616470336914,-32.39991760253906,21.178874969482422,-29.68878746032715,21.277751922607422,0.0
1357,-2.933349609375,-3.826171875,-4.92626953125,7.572519302368164,-7.343511581420898,4.0916032791137695,-33.71675491333008,25.186124801635742,0.0,33.63402557373047,-32.4366340637207,21.19933319091797,-29.679784774780273,21.2690372467041,0.0
1362,-2.9345703125,-3.8310546875,-4.9189453125,7.740458011627197,-7.251908302307129,5.068702220916748,-33.77667999267578,25.20516014099121,0.0,33.6727294921875,-32.47289276123047,21.22467613220215,-29.670412063598633,21.26095199584961,0.0
1367,-2.932373046875,-3.826904296875,-4.9248046875,7.343511581420898,-7.465648651123047,4.503816604614258,-33.72993469238281,25.18128204345703,0.0,33.70944595336914,-32.51021957397461,21.247194290161133,-29.6627197265625,21.251667022705078,0.0
1372,-2.937744140625,-3.82470703125,-4.9208984375,7.572519302368164,-7.358778476715088,4.641221523284912,-33.717529296875,25.237384796142578,0.0,33.74730682373047,-32.54701232910156,21.270401000976562,-29.653833389282227,21.243350982666016,0.0
1377,-2.936279296875,-3.82763671875,-4.929931640625,7.679389476776123,-7.175572395324707,4.473282337188721,-33.70545959472656,25.194746017456055,0.0,33.78570556640625,-32.582889556884766,21.292766571044922,-29.64436912536621,21.235679626464844,0.0
1382,-2.934326171875,-3.827880859375,-4.927978515625,7.6946563720703125,-7.083969593048096,5.083969593048096,-33.71949005126953,25.184988021850586,0.0,33.824180603027344,-32.618309020996094,21.318185806274414,-29.634971618652344,21.228424072265625,0.0
1387,-2.935791015625,-3.82568359375,-4.92138671875,7.43511438369751,-7.633587837219238,4.6259541511535645,-33.72697067260742,25.219200134277344,0.0,33.86135482788086,-32.65647506713867,21.34131622314453,-29.626956939697266,21.21870994567871,0.0
1393,-2.937255859375,-3.82421875,-4.916748046875,7.221374034881592,-7.282442569732666,4.961832046508789,-33.73176574707031,25.246395111083984,0.0,33.90468215942383,-32.70016860961914,21.3710880279541,-29.61298179626465,21.20382308959961,0.0
1398,-2.935791015625,-3.82568359375,-4.925048828125,7.404580116271973,-7.740458011627197,4.778625965118408,-33.71245574951172,25.208959579467773,0.0,33.94170379638672,-32.73887252807617,21.394981384277344,-29.60520362854004,21.193710327148438,0.0
1403,-2.93212890625,-3.824951171875,-4.932861328125,7.4809160232543945,-7.297709941864014,4.793893337249756,-33.68507385253906,25.161182403564453,0.0,33.97910690307617,-32.775360107421875,21.4189510345459,-29.59688377380371,21.185504913330078,0.0
1408,-2.935546875,-3.826416015625,-4.92822265625,7.5877861976623535,-7.450381755828857,4.488549709320068,-33.70551681518555,25.1966609954834,0.0,34.01704406738281,-32.8126106262207,21.44139289855957,-29.588212966918945,21.176828384399414,0.0
1413,-2.931884765625,-3.826416015625,-4.92529296875,7.618320465087891,-7.3740458488464355,4.900763511657715,-33.72577667236328,25.177305221557617,0.0,34.05513381958008,-32.84947967529297,21.465896606445312,-29.579570770263672,21.168432235717773,0.0
1418,-2.93701171875,-3.824462890625,-4.927490234375,7.160305500030518,-7.14503812789917,4.5190839767456055,-33.69145965576172,25.213960647583008,0.0,34.09093475341797,-32.88520431518555,21.488492965698242,-29.572999954223633,21.161468505859375,0.0
1423,-2.93994140625,-3.82568359375,-4.921630859375,7.679389476776123,-7.14503812789917,4.748091697692871,-33.7161865234375,25.249732971191406,0.0,34.12933349609375,-32.920928955078125,21.51223373413086,-29.564048767089844,21.154783248901367,0.0
1428,-2.933837890625,-3.831298828125,-4.92431640625,7.72519063949585,-7.267175674438477,4.900763511657715,-33.758785247802734,25.184123992919922,0.0,34.16796112060547,-32.9572639465332,21.5367374420166,-29.55521011352539,21.147056579589844,0.0
1433,-2.936767578125,-3.826416015625,-4.926025390625,7.679389476776123,-7.404580116271973,4.824427604675293,-33.711341857910156,25.21198272705078,0.0,34.20635986328125,-32.994285583496094,21.56085968017578,-29.54630470275879,21.138874053955078,0.0
1438,-2.93994140625,-3.82666015625,-4.921630859375,7.541984558105469,-7.618320465087891,4.671755790710449,-33.722938537597656,25.247608184814453,0.0,34.24406814575195,-33.03237533569336,21.584218978881836,-29.538204193115234,21.12991714477539,0.0
1443,-2.93701171875,-3.8291015625,-4.927734375,7.648854732513428,-7.343511581420898,4.824427604675293,-33.72255325317383,25.203210830688477,0.0,34.28231430053711,-33.069091796875,21.608341217041016,-29.529605865478516,21.122053146362305,0.0
1448,-2.93505859375,-3.823974609375,-4.93359375,7.72519063949585,-7.541984558105469,4.503816604614258,-33.66852569580078,25.183277130126953,0.0,34.32094192504883,-33.1068000793457,21.630859375,-29.520286560058594,21.11309814453125,0.0
1453,-2.93701171875,-3.824951171875,-4.9208984375,7.404580116271973,-7.3740458488464355,4.381679534912109,-33.72095489501953,25.231342315673828,0.0,34.35796356201172,-33.14366912841797,21.652767181396484,-29.512969970703125,21.105356216430664,0.0
1458,-2.93505859375,-3.8232421875,-4.923095703125,7.282442569732666,-7.389312744140625,4.5190839767456055,-33.705039978027344,25.214216232299805,0.0,34.39437484741211,-33.18061447143555,21.675363540649414,-29.506181716918945,21.09745216369629,0.0
1463,-2.936767578125,-3.82470703125,-4.923095703125,7.679389476776123,-7.068702220916748,4.320610523223877,-33.71113204956055,25.223888397216797,0.0,34.43277359008789,-33.21595764160156,21.69696617126465,-29.49748992919922,21.091243743896484,0.0
1468,-2.9365234375,-3.82275390625,-4.92724609375,7.511450290679932,-7.114503860473633,4.748091697692871,-33.681758880615234,25.21468162536621,0.0,34.47032928466797,-33.251529693603516,21.720706939697266,-29.48946762084961,21.084766387939453,0.0
1474,-2.935546875,-3.82763671875,-4.921142578125,7.664122104644775,-7.206106662750244,4.687022686004639,-33.74202346801758,25.21380043029785,0.0,34.51631546020508,-33.29476547241211,21.748828887939453,-29.473617553710938,21.07077980041504,0.0
1479,-2.934814453125,-3.825927734375,-4.9296875,7.557251930236816,-7.175572395324707,5.083969593048096,-33.69806671142578,25.188121795654297,0.0,34.554100036621094,-33.33064270019531,21.774248123168945,-29.465688705444336,21.063997268676758,0.0
1484,-2.935546875,-3.826904296875,-4.920166015625,7.618320465087891,-7.511450290679932,4.839694499969482,-33.7408332824707,25.218124389648438,0.0,34.59218978881836,-33.36819839477539,21.798446655273438,-29.45779037475586,21.055782318115234,0.0
1489,-2.9365234375,-3.8291015625,-4.918701171875,7.083969593048096,-6.961832046508789,4.931297779083252,-33.759521484375,25.22478485107422,0.0,34.62760925292969,-33.40300750732422,21.823102951049805,-29.45271110534668,21.05038070678711,0.0
1494,-2.93359375,-3.82568359375,-4.926025390625,7.541984558105469,-7.251908302307129,4.641221523284912,-33.713775634765625,25.18970489501953,0.0,34.66531753540039,-33.439266204833984,21.846309661865234,-29.445053100585938,21.043312072753906,0.0
1499,-2.935546875,-3.828369140625,-4.92724609375,7.343511581420898,-7.3740458488464355,4.56488561630249,-33.72288513183594,25.195152282714844,0.0,34.70203399658203,-33.47613525390625,21.8691349029541,-29.4384765625,21.035703659057617,0.0
1504,-2.937744140625,-3.822265625,-4.924072265625,7.282442569732666,-7.450381755828857,4.4122138023376465,-33.68806838989258,25.233808517456055,0.0,34.73844528198242,-33.51338577270508,21.89119529724121,-29.431987762451172,21.028018951416016,0.0
1509,-2.9384765625,-3.828369140625,-4.92822265625,7.832061290740967,-7.282442569732666,4.427480697631836,-33.712100982666016,25.214447021484375,0.0,34.77760696411133,-33.54979705810547,21.913331985473633,-29.422962188720703,21.021068572998047,0.0
1514,-2.932861328125,-3.826416015625,-4.93017578125,7.648854732513428,-7.404580116271973,4.885496139526367,-33.7041130065918,25.1710147857666,0.0,34.815853118896484,-33.58681869506836,21.937759399414062,-29.414833068847656,21.01323699951172,0.0
1519,-2.929931640625,-3.827392578125,-4.924072265625,7.603053569793701,-7.450381755828857,4.58015251159668,-33.74198532104492,25.163894653320312,0.0,34.85386657714844,-33.62406921386719,21.960660934448242,-29.40723419189453,21.005165100097656,0.0
1524,-2.939453125,-3.82568359375,-4.92333984375,7.465648651123047,-7.496183395385742,4.702290058135986,-33.7105712890625,25.24127769470215,0.0,34.89119338989258,-33.66154861450195,21.984172821044922,-29.400131225585938,20.9974422454834,0.0
1529,-2.933837890625,-3.831787109375,-4.9267578125,7.816793918609619,-7.343511581420898,4.824427604675293,-33.752471923828125,25.176250457763672,0.0,34.93027877807617,-33.698265075683594,22.0082950592041,-29.3916072845459,20.990060806274414,0.0
1534,-2.9345703125,-3.833251953125,-4.925537109375,7.740458011627197,-7.496183395385742,5.038167953491211,-33.76570510864258,25.181983947753906,0.0,34.9689826965332,-33.73574447631836,22.033485412597656,-29.383596420288086,20.98199462890625,0.0
1539,-2.935546875,-3.826904296875,-4.927001953125,7.557251930236816,-6.961832046508789,4.717557430267334,-33.71372985839844,25.199012756347656,0.0,35.00676727294922,-33.77055358886719,22.05707359313965,-29.376169204711914,20.97673797607422,0.0
1544,-2.9306640625,-3.825439453125,-4.923583984375,7.496183395385742,-7.4809160232543945,4.992366313934326,-33.72868728637695,25.175010681152344,0.0,35.044246673583984,-33.80795669555664,22.082035064697266,-29.369182586669922,20.9687557220459,0.0
1549,-2.936767578125,-3.826416015625,-4.925537109375,7.343511581420898,-6.824427604675293,4.549618244171143,-33.71327590942383,25.213346481323242,0.0,35.080963134765625,-33.842079162597656,22.10478401184082,-29.362876892089844,20.964338302612305,0.0
1555,-2.93896484375,-3.825439453125,-4.9228515625,7.526717662811279,-7.022900581359863,4.641221523284912,-33.711971282958984,25.239505767822266,0.0,35.118595123291016,-33.877193450927734,22.12799072265625,-29.355680465698242,20.959131240844727,0.0
1560,-2.935546875,-3.8251953125,-4.92919921875,7.450381755828857,-7.343511581420898,5.14503812789917,-33.69321060180664,25.19658088684082,0.0,35.16329574584961,-33.9212532043457,22.15886116027832,-29.341449737548828,20.944841384887695,0.0
1565,-2.938720703125,-3.82763671875,-4.926513671875,7.740458011627197,-7.297709941864014,4.977099418640137,-33.71323013305664,25.22264862060547,0.0,35.20199966430664,-33.957740783691406,22.183746337890625,-29.333398818969727,20.93833351135254,0.0
1570,-2.93408203125,-3.826171875,-4.9189453125,7.4809160232543945,-7.557251930236816,4.5190839767456055,-33.744075775146484,25.212108612060547,0.0,35.239402770996094,-33.99552536010742,22.206342697143555,-29.326887130737305,20.930492401123047,0.0
1575,-2.93896484375,-3.830078125,-4.923583984375,7.267175674438477,-7.43511438369751,4.656488418579102,-33.74113082885742,25.22736930847168,0.0,35.27573776245117,-34.03269958496094,22.229625701904297,-29.32144546508789,20.92340087890625,0.0
1580,-2.93359375,-3.828857421875,-4.925048828125,7.541984558105469,-7.099236488342285,4.809160232543945,-33.739585876464844,25.185543060302734,0.0,35.313446044921875,-34.06819534301758,22.253671646118164,-29.314645767211914,20.9177188873291,0.0
1585,-2.934814453125,-3.82763671875,-4.927734375,7.572519302368164,-7.083969593048096,4.778625965118408,-33.71761703491211,25.189870834350586,0.0,35.3513069152832,-34.103614807128906,22.277565002441406,-29.307573318481445,20.91216468811035,0.0
1590,-2.93505859375,-3.8251953125,-4.9228515625,7.541984558105469,-7.465648651123047,4.503816604614258,-33.719520568847656,25.210655212402344,0.0,35.389015197753906,-34.14094161987305,22.30008316040039,-29.300697326660156,20.90488052368164,0.0
1595,-2.931640625,-3.825927734375,-4.923095703125,7.41984748840332,-7.312977313995361,4.656488418579102,-33.731693267822266,25.18266487121582,0.0,35.42611312866211,-34.17750549316406,22.323366165161133,-29.29454231262207,20.898193359375,0.0
1600,-2.9345703125,-3.82177734375,-4.92333984375,7.022900581359863,-7.267175674438477,4.458015441894531,-33.695091247558594,25.213043212890625,0.0,35.46122741699219,-34.21384048461914,22.34565544128418,-29.290130615234375,20.89197540283203,0.0
1605,-2.939453125,-3.82470703125,-4.928466796875,7.389312744140625,-7.221374034881592,4.656488418579102,-33.68351745605469,25.229053497314453,0.0,35.498172760009766,-34.24994659423828,22.368938446044922,-29.283832550048828,20.886123657226562,0.0
1610,-2.9384765625,-3.829833984375,-4.9228515625,7.328244209289551,-7.297709941864014,4.717557430267334,-33.74350357055664,25.226276397705078,0.0,35.534812927246094,-34.286434173583984,22.392526626586914,-29.27828025817871,20.87989616394043,0.0
1615,-2.93701171875,-3.824951171875,-4.922119140625,7.312977313995361,-7.312977313995361,4.152671813964844,-33.71611785888672,25.22792625427246,0.0,35.57137680053711,-34.322998046875,22.41329002380371,-29.27263641357422,20.87363052368164,0.0
1620,-2.936767578125,-3.82666015625,-4.92041015625,7.526717662811279,-7.267175674438477,4.473282337188721,-33.735286712646484,25.227155685424805,0.0,35.6090087890625,-34.35933303833008,22.43565559387207,-29.26608657836914,20.867616653442383,0.0
1625,-2.9345703125,-3.82763671875,-4.928955078125,7.343511581420898,-7.404580116271973,4.778625965118408,-33.713356018066406,25.18462562561035,0.0,35.64572525024414,-34.39635467529297,22.459548950195312,-29.26032257080078,20.86065101623535,0.0
1630,-2.935302734375,-3.827880859375,-4.923095703125,7.511450290679932,-7.328244209289551,4.610687255859375,-33.736541748046875,25.205974578857422,0.0,35.68328094482422,-34.4329948425293,22.482603073120117,-29.253910064697266,20.854244232177734,0.0
1636,-2.938720703125,-3.826904296875,-4.925537109375,7.175572395324707,-7.221374034881592,4.396946430206299,-33.7120361328125,25.226972579956055,0.0,35.71915817260742,-34.46910095214844,22.504587173461914,-29.249025344848633,20.848543167114258,0.0
1641,-2.939208984375,-3.829345703125,-4.92626953125,7.557251930236816,-7.068702220916748,4.778625965118408,-33.724853515625,25.22328758239746,0.0,35.764503479003906,-34.511512756347656,22.53325843811035,-29.234933853149414,20.8366641998291,0.0
1646,-2.934326171875,-3.82861328125,-4.928466796875,7.41984748840332,-7.832061290740967,4.6259541511535645,-33.722618103027344,25.182035446166992,0.0,35.80160140991211,-34.55067443847656,22.55638885498047,-29.229095458984375,20.827796936035156,0.0
1651,-2.934814453125,-3.8212890625,-4.92431640625,7.633587837219238,-7.358778476715088,4.381679534912109,-33.6872673034668,25.213207244873047,0.0,35.83976745605469,-34.587467193603516,22.578296661376953,-29.221975326538086,20.8215389251709,0.0
1656,-2.9326171875,-3.826904296875,-4.927490234375,7.770992279052734,-7.3740458488464355,4.5190839767456055,-33.71870803833008,25.175617218017578,0.0,35.878623962402344,-34.62433624267578,22.600893020629883,-29.21442413330078,20.814973831176758,0.0
1661,-2.93603515625,-3.82373046875,-4.923095703125,7.282442569732666,-7.358778476715088,4.442748069763184,-33.70610809326172,25.220502853393555,0.0,35.915035247802734,-34.661128997802734,22.623106002807617,-29.20924949645996,20.808822631835938,0.0
1666,-2.93603515625,-3.828857421875,-4.921142578125,7.740458011627197,-7.297709941864014,4.56488561630249,-33.749305725097656,25.214818954467773,0.0,35.953739166259766,-34.69761657714844,22.645931243896484,-29.202117919921875,20.802963256835938,0.0
1671,-2.93603515625,-3.822265625,-4.92529296875,7.343511581420898,-7.4809160232543945,4.900763511657715,-33.68727111816406,25.21753692626953,0.0,35.990455627441406,-34.73501968383789,22.670434951782227,-29.196561813354492,20.796239852905273,0.0
1676,-2.939697265625,-3.825927734375,-4.924072265625,7.3740458488464355,-7.022900581359863,4.7633585929870605,-33.708778381347656,25.24053382873535,0.0,36.02732467651367,-34.77013397216797,22.694252014160156,-29.191024780273438,20.791980743408203,0.0
1681,-2.933349609375,-3.82861328125,-4.925537109375,7.633587837219238,-7.404580116271973,5.114503860473633,-33.73653793334961,25.182872772216797,0.0,36.06549072265625,-34.80715560913086,22.719823837280273,-29.18441390991211,20.785442352294922,0.0
1686,-2.93701171875,-3.827392578125,-4.92041015625,7.618320465087891,-7.5877861976623535,5.190839767456055,-33.73977279663086,25.227397918701172,0.0,36.103580474853516,-34.8450927734375,22.745777130126953,-29.177932739257812,20.778331756591797,0.0
1691,-2.93603515625,-3.827392578125,-4.918701171875,7.175572395324707,-7.496183395385742,5.022900581359863,-33.748863220214844,25.22483253479004,0.0,36.13945770263672,-34.882572174072266,22.770891189575195,-29.173742294311523,20.771692276000977,0.0
1696,-2.9365234375,-3.8291015625,-4.92138671875,7.297709941864014,-7.572519302368164,4.961832046508789,-33.748870849609375,25.21727752685547,0.0,36.17594528198242,-34.920433044433594,22.795700073242188,-29.16895866394043,20.7646541595459,0.0
1701,-2.9365234375,-3.825927734375,-4.923828125,7.496183395385742,-7.511450290679932,4.534351348876953,-33.71725082397461,25.217350006103516,0.0,36.21342468261719,-34.95798873901367,22.81837272644043,-29.162992477416992,20.757953643798828,0.0
1706,-2.937255859375,-3.82568359375,-4.92041015625,7.5877861976623535,-7.43511438369751,4.595419883728027,-33.727378845214844,25.232952117919922,0.0,36.25136184692383,-34.99516296386719,22.841350555419922,-29.156667709350586,20.751771926879883,0.0
1711,-2.938232421875,-3.82763671875,-4.931884765625,7.648854732513428,-7.175572395324707,4.58015251159668,-33.693119049072266,25.203969955444336,0.0,36.289608001708984,-35.03104019165039,22.8642520904541,-29.14983367919922,20.7467098236084,0.0
1717,-2.932861328125,-3.8271484375,-4.92041015625,7.404580116271973,-7.389312744140625,4.4122138023376465,-33.74790573120117,25.19670295715332,0.0,36.326629638671875,-35.06798553466797,22.88631248474121,-29.144620895385742,20.740556716918945,0.0
1722,-2.935302734375,-3.827392578125,-4.932861328125,7.358778476715088,-7.221374034881592,4.0,-33.69447326660156,25.17975425720215,0.0,36.37078094482422,-35.11131286621094,22.91031265258789,-29.13207244873047,20.72806739807129,0.0
1727,-2.938232421875,-3.822998046875,-4.9296875,7.557251930236816,-7.41984748840332,4.732824325561523,-33.66975021362305,25.220172882080078,0.0,36.408565521240234,-35.14841079711914,22.933977127075195,-29.125747680664062,20.722110748291016,0.0
1732,-2.931396484375,-3.827880859375,-4.920166015625,7.450381755828857,-7.068702220916748,5.083969593048096,-33.75740432739258,25.184768676757812,0.0,36.44581604003906,-35.183753967285156,22.959396362304688,-29.12058448791504,20.717683792114258,0.0
1737,-2.937255859375,-3.824951171875,-4.92578125,7.526717662811279,-7.648854732513428,5.14503812789917,-33.70103073120117,25.21951675415039,0.0,36.48344802856445,-35.22200012207031,22.98512077331543,-29.11467742919922,20.710630416870117,0.0
1742,-2.9375,-3.829833984375,-4.9208984375,7.4809160232543945,-7.221374034881592,4.946564674377441,-33.75355911254883,25.22439193725586,0.0,36.520851135253906,-35.25810623168945,23.00985336303711,-29.109384536743164,20.705768585205078,0.0
1747,-2.93896484375,-3.830078125,-4.92236328125,7.328244209289551,-7.3740458488464355,4.473282337188721,-33.745967864990234,25.23078155517578,0.0,36.557491302490234,-35.29497528076172,23.03221893310547,-29.104820251464844,20.700210571289062,0.0
1752,-2.93701171875,-3.828369140625,-4.92919921875,7.70992374420166,-7.541984558105469,4.900763511657715,-33.711692810058594,25.200708389282227,0.0,36.59604263305664,-35.33268356323242,23.05672264099121,-29.098142623901367,20.69363784790039,0.0
1757,-2.937255859375,-3.829345703125,-4.923828125,7.496183395385742,-6.916030406951904,4.595419883728027,-33.7391471862793,25.215429306030273,0.0,36.633522033691406,-35.36726379394531,23.079700469970703,-29.09274673461914,20.690305709838867,0.0
1762,-2.9375,-3.82763671875,-4.917724609375,7.5877861976623535,-7.404580116271973,4.473282337188721,-33.75095748901367,25.238052368164062,0.0,36.67145919799805,-35.4042854309082,23.102066040039062,-29.08700180053711,20.684711456298828,0.0
1767,-2.9326171875,-3.8291015625,-4.92236328125,7.206106662750244,-7.312977313995361,4.58015251159668,-33.754234313964844,25.185165405273438,0.0,36.707489013671875,-35.44084930419922,23.124967575073242,-29.083200454711914,20.679235458374023,0.0
1772,-2.93212890625,-3.828369140625,-4.920654296875,7.267175674438477,-7.221374034881592,4.5190839767456055,-33.757110595703125,25.187856674194336,0.0,36.74382400512695,-35.47695541381836,23.147563934326172,-29.07912826538086,20.674259185791016,0.0
1777,-2.9345703125,-3.827880859375,-4.923095703125,7.343511581420898,-7.282442569732666,4.5190839767456055,-33.73827362060547,25.200464248657227,0.0,36.780540466308594,-35.51336669921875,23.1701602935791,-29.074562072753906,20.66908836364746,0.0
1782,-2.934814453125,-3.827880859375,-4.9189453125,7.679389476776123,-7.343511581420898,4.381679534912109,-33.7541618347168,25.21390151977539,0.0,36.818939208984375,-35.55008316040039,23.192068099975586,-29.068456649780273,20.663726806640625,0.0
1787,-2.93408203125,-3.823486328125,-4.9189453125,7.755725383758545,-7.160305500030518,5.022900581359863,-33.725494384765625,25.21795082092285,0.0,36.85771942138672,-35.58588409423828,23.217182159423828,-29.061803817749023,20.65932846069336,0.0
1792,-2.93505859375,-3.825927734375,-4.92724609375,7.4809160232543945,-7.526717662811279,4.977099418640137,-33.7071647644043,25.196779251098633,0.0,36.89512252807617,-35.62351608276367,23.242067337036133,-29.05642318725586,20.652982711791992,0.0
1797,-2.933837890625,-3.826904296875,-4.9169921875,7.603053569793701,-7.114503860473633,4.396946430206299,-33.75747299194336,25.214139938354492,0.0,36.933135986328125,-35.659088134765625,23.26405143737793,-29.050806045532227,20.648834228515625,0.0
1803,-2.940185546875,-3.830078125,-4.926025390625,7.3740458488464355,-7.251908302307129,4.56488561630249,-33.728572845458984,25.229719161987305,0.0,36.977378845214844,-35.702598571777344,23.291440963745117,-29.038921356201172,20.637012481689453,0.0
1808,-2.935546875,-3.829833984375,-4.927734375,7.557251930236816,-7.450381755828857,4.946564674377441,-33.73107147216797,25.190610885620117,0.0,37.01516342163086,-35.73984909057617,23.316173553466797,-29.03353500366211,20.631208419799805,0.0
1813,-2.93603515625,-3.82861328125,-4.92236328125,7.603053569793701,-7.114503860473633,4.458015441894531,-33.74277877807617,25.211936950683594,0.0,37.05317687988281,-35.775421142578125,23.338462829589844,-29.028026580810547,20.627246856689453,0.0
1818,-2.935791015625,-3.8291015625,-4.9306640625,7.190839767456055,-7.14503812789917,4.29007625579834,-33.713829040527344,25.185855865478516,0.0,37.08913040161133,-35.8111457824707,23.359912872314453,-29.024391174316406,20.622968673706055,0.0
1823,-2.939208984375,-3.823486328125,-4.925048828125,7.450381755828857,-7.557251930236816,4.427480697631836,-33.68918228149414,25.239437103271484,0.0,37.126380920410156,-35.84893035888672,23.382049560546875,-29.019309997558594,20.617027282714844,0.0
1828,-2.935546875,-3.825439453125,-4.91943359375,7.404580116271973,-7.43511438369751,4.56488561630249,-33.73360824584961,25.223360061645508,0.0,37.16340255737305,-35.886104583740234,23.404874801635742,-29.014781951904297,20.611610412597656,0.0
1833,-2.93212890625,-3.82421875,-4.931396484375,7.816793918609619,-7.190839767456055,4.793893337249756,-33.68581008911133,25.166858673095703,0.0,37.20248794555664,-35.92205810546875,23.428844451904297,-29.00790023803711,20.607046127319336,0.0
1838,-2.93603515625,-3.826416015625,-4.91943359375,7.465648651123047,-7.358778476715088,4.748091697692871,-33.73920440673828,25.22490882873535,0.0,37.23981475830078,-35.9588508605957,23.452585220336914,-29.00316047668457,20.602062225341797,0.0
1843,-2.933349609375,-3.83203125,-4.922607421875,7.755725383758545,-7.2366414070129395,4.885496139526367,-33.77178192138672,25.183629989624023,0.0,37.278594970703125,-35.995033264160156,23.477012634277344,-28.997224807739258,20.59742546081543,0.0
1848,-2.933349609375,-3.831298828125,-4.9208984375,7.541984558105469,-7.343511581420898,4.885496139526367,-33.773502349853516,25.189990997314453,0.0,37.31630325317383,-36.0317497253418,23.501440048217773,-28.992389678955078,20.592321395874023,0.0
1853,-2.9365234375,-3.824462890625,-4.927001953125,7.358778476715088,-7.14503812789917,4.946564674377441,-33.69454574584961,25.21165657043457,0.0,37.35309600830078,-36.067474365234375,23.526172637939453,-28.987945556640625,20.588375091552734,0.0
1858,-2.935791015625,-3.826904296875,-4.93017578125,7.786259651184082,-7.4809160232543945,4.992366313934326,-33.70058059692383,25.19198226928711,0.0,37.39202880859375,-36.10487747192383,23.55113410949707,-28.9814395904541,20.5826416015625,0.0
1863,-2.935791015625,-3.824951171875,-4.923583984375,7.206106662750244,-7.114503860473633,4.732824325561523,-33.71319580078125,25.21464729309082,0.0,37.42805862426758,-36.14044952392578,23.574798583984375,-28.977933883666992,20.57891082763672,0.0
1868,-2.93798828125,-3.829833984375,-4.91796875,7.328244209289551,-7.206106662750244,4.656488418579102,-33.76401901245117,25.236257553100586,0.0,37.464698791503906,-36.17647933959961,23.598081588745117,-28.974180221557617,20.574886322021484,0.0
1873,-2.93798828125,-3.827392578125,-4.92822265625,7.312977313995361,-7.358778476715088,4.671755790710449,-33.706504821777344,25.2128963470459,0.0,37.50126266479492,-36.21327209472656,23.621440887451172,-28.970123291015625,20.56995964050293,0.0
1878,-2.935791015625,-3.826904296875,-4.9248046875,7.70992374420166,-7.526717662811279,4.656488418579102,-33.72186279296875,25.20699119567871,0.0,37.53981399536133,-36.25090408325195,23.644723892211914,-28.964218139648438,20.56418228149414,0.0
1884,-2.9326171875,-3.8271484375,-4.92138671875,7.389312744140625,-7.312977313995361,4.56488561630249,-33.744606018066406,25.192136764526367,0.0,37.58414840698242,-36.29478073120117,23.6721134185791,-28.952842712402344,20.55221939086914,0.0
1889,-2.937255859375,-3.829833984375,-4.9296875,7.603053569793701,-7.282442569732666,4.748091697692871,-33.719303131103516,25.198001861572266,0.0,37.622161865234375,-36.33119201660156,23.69585418701172,-28.9476375579834,20.54778289794922,0.0
1894,-2.93798828125,-3.826171875,-4.9208984375,7.328244209289551,-7.389312744140625,5.007633686065674,-33.72708511352539,25.236034393310547,0.0,37.6588020324707,-36.36813735961914,23.72089195251465,-28.94387435913086,20.543092727661133,0.0
1899,-2.93701171875,-3.82861328125,-4.920166015625,7.251908302307129,-7.282442569732666,5.038167953491211,-33.74917984008789,25.22542381286621,0.0,37.69506072998047,-36.40454864501953,23.746082305908203,-28.940654754638672,20.538883209228516,0.0
1904,-2.935546875,-3.824951171875,-4.923583984375,7.664122104644775,-7.282442569732666,4.717557430267334,-33.71377182006836,25.212810516357422,0.0,37.73338317871094,-36.44095993041992,23.769670486450195,-28.935157775878906,20.534605026245117,0.0
1909,-2.93994140625,-3.823974609375,-4.919189453125,7.465648651123047,-7.343511581420898,4.85496187210083,-33.71403503417969,25.260292053222656,0.0,37.77070999145508,-36.47767639160156,23.7939453125,-28.930673599243164,20.530363082885742,0.0
1914,-2.933349609375,-3.827392578125,-4.923828125,7.664122104644775,-7.053435325622559,4.534351348876953,-33.73487854003906,25.190296173095703,0.0,37.80903244018555,-36.512943267822266,23.816617965698242,-28.925365447998047,20.527103424072266,0.0
1919,-2.9384765625,-3.82958984375,-4.930419921875,7.511450290679932,-7.465648651123047,4.85496187210083,-33.71183395385742,25.205659866333008,0.0,37.846588134765625,-36.550270080566406,23.840892791748047,-28.920682907104492,20.52191162109375,0.0
1924,-2.93603515625,-3.82470703125,-4.927001953125,7.8015265464782715,-7.633587837219238,4.6259541511535645,-33.697383880615234,25.207454681396484,0.0,37.885597229003906,-36.588436126708984,23.864023208618164,-28.91448211669922,20.51592445373535,0.0
1929,-2.936279296875,-3.828125,-4.92822265625,7.526717662811279,-7.450381755828857,4.748091697692871,-33.71560287475586,25.19845962524414,0.0,37.9232292175293,-36.62568664550781,23.88776397705078,-28.909801483154297,20.510814666748047,0.0
1934,-2.9375,-3.8271484375,-4.9208984375,7.4809160232543945,-7.465648651123047,4.702290058135986,-33.73499298095703,25.230236053466797,0.0,37.96063232421875,-36.66301345825195,23.91127586364746,-28.905500411987305,20.505870819091797,0.0
1939,-2.9404296875,-3.830078125,-4.92529296875,7.267175674438477,-7.114503860473633,4.549618244171143,-33.73089599609375,25.233600616455078,0.0,37.99696731567383,-36.698585510253906,23.934024810791016,-28.902254104614258,20.502716064453125,0.0
1944,-2.93798828125,-3.823974609375,-4.926025390625,7.389312744140625,-7.083969593048096,4.702290058135986,-33.69157791137695,25.226465225219727,0.0,38.033912658691406,-36.734004974365234,23.957536697387695,-28.898143768310547,20.499675750732422,0.0
1949,-2.935302734375,-3.82958984375,-4.92138671875,7.41984748840332,-7.3740458488464355,4.778625965118408,-33.75513458251953,25.207035064697266,0.0,38.07101058959961,-36.7708740234375,23.981430053710938,-28.894330978393555,20.495073318481445,0.0
1954,-2.9384765625,-3.8251953125,-4.927734375,7.618320465087891,-7.297709941864014,4.824427604675293,-33.692100524902344,25.222702026367188,0.0,38.109100341796875,-36.8073616027832,24.005552291870117,-28.88912010192871,20.490976333618164,0.0
1959,-2.938232421875,-3.822265625,-4.923583984375,7.618320465087891,-7.251908302307129,4.427480697631836,-33.688846588134766,25.238847732543945,0.0,38.14719009399414,-36.84362030029297,24.02768898010254,-28.883913040161133,20.48723793029785,0.0
1965,-2.93408203125,-3.8251953125,-4.92333984375,7.541984558105469,-7.633587837219238,4.213740348815918,-33.71989059448242,25.20194435119629,0.0,38.19244384765625,-36.88942337036133,24.05297088623047,-28.871925354003906,20.473876953125,0.0
1970,-2.933349609375,-3.82373046875,-4.931640625,7.221374034881592,-7.2366414070129395,4.58015251159668,-33.678592681884766,25.17641258239746,0.0,38.22854995727539,-36.92560577392578,24.07587242126465,-28.868810653686523,20.4699764251709,0.0
1975,-2.937255859375,-3.826416015625,-4.92333984375,7.648854732513428,-7.129770755767822,4.442748069763184,-33.720829010009766,25.223163604736328,0.0,38.26679611206055,-36.96125411987305,24.098085403442383,-28.863868713378906,20.46693992614746,0.0
1980,-2.93701171875,-3.8291015625,-4.924072265625,7.72519063949585,-7.526717662811279,4.870229244232178,-33.73706817626953,25.213443756103516,0.0,38.305423736572266,-36.99888610839844,24.1224365234375,-28.85868263244629,20.461875915527344,0.0
1985,-2.934326171875,-3.826904296875,-4.925048828125,7.389312744140625,-7.557251930236816,4.610687255859375,-33.7243537902832,25.19529151916504,0.0,38.342369079589844,-37.03667068481445,24.145490646362305,-28.855100631713867,20.456560134887695,0.0
1990,-2.937255859375,-3.82861328125,-4.91552734375,7.679389476776123,-7.160305500030518,4.396946430206299,-33.767005920410156,25.240236282348633,0.0,38.380767822265625,-37.072471618652344,24.1674747467041,-28.850383758544922,20.453548431396484,0.0
1995,-2.935791015625,-3.827880859375,-4.922119140625,7.603053569793701,-7.5877861976623535,4.335877895355225,-33.739261627197266,25.21237564086914,0.0,38.41878128051758,-37.110408782958984,24.18915367126465,-28.84587860107422,20.44823455810547,0.0
2000,-2.9326171875,-3.826416015625,-4.92236328125,7.389312744140625,-7.190839767456055,4.656488418579102,-33.73566818237305,25.19099998474121,0.0,38.455726623535156,-37.1463623046875,24.21243667602539,-28.842430114746094,20.444772720336914,0.0
2005,-2.939208984375,-3.828369140625,-4.92578125,7.496183395385742,-7.572519302368164,5.083969593048096,-33.72003936767578,25.226776123046875,0.0,38.49320602416992,-37.18422317504883,24.237855911254883,-28.83835792541504,20.43967056274414,0.0
2010,-2.9365234375,-3.82470703125,-4.926513671875,7.72519063949585,-7.41984748840332,4.56488561630249,-33.69816589355469,25.212491989135742,0.0,38.53183364868164,-37.22132110595703,24.26068115234375,-28.833017349243164,20.43525505065918,0.0
2015,-2.938720703125,-3.829833984375,-4.926513671875,7.465648651123047,-7.14503812789917,4.702290058135986,-33.72841262817383,25.217876434326172,0.0,38.56916046142578,-37.25704574584961,24.28419303894043,-28.82919692993164,20.432262420654297,0.0
2020,-2.9384765625,-3.827880859375,-4.92431640625,7.175572395324707,-7.5877861976623535,4.5190839767456055,-33.72420120239258,25.22642707824707,0.0,38.605037689208984,-37.29498291015625,24.30678939819336,-28.826805114746094,20.427139282226562,0.0
2025,-2.935791015625,-3.82177734375,-4.931884765625,7.557251930236816,-7.175572395324707,4.5190839767456055,-33.65837097167969,25.198318481445312,0.0,38.642822265625,-37.33086013793945,24.32938575744629,-28.82207679748535,20.423898696899414,0.0
2030,-2.935302734375,-3.8251953125,-4.924560546875,7.541984558105469,-7.221374034881592,4.824427604675293,-33.71216583251953,25.207712173461914,0.0,38.6805305480957,-37.366966247558594,24.35350799560547,-28.817811965942383,20.420507431030273,0.0
2035,-2.93798828125,-3.826416015625,-4.924560546875,7.648854732513428,-7.4809160232543945,4.809160232543945,-33.71426010131836,25.225257873535156,0.0,38.71877670288086,-37.40436935424805,24.377553939819336,-28.813051223754883,20.415958404541016,0.0
2040,-2.93505859375,-3.824951171875,-4.924560546875,7.358778476715088,-7.496183395385742,4.442748069763184,-33.711055755615234,25.20640754699707,0.0,38.75556945800781,-37.44184875488281,24.39976692199707,-28.809730529785156,20.411226272583008,0.0
2046,-2.938720703125,-3.827880859375,-4.9248046875,7.770992279052734,-7.160305500030518,4.534351348876953,-33.72168731689453,25.226898193359375,0.0,38.80219650268555,-37.48480987548828,24.426973342895508,-28.79682731628418,20.401308059692383,0.0
2051,-2.9345703125,-3.829833984375,-4.9228515625,7.465648651123047,-7.282442569732666,4.824427604675293,-33.752742767333984,25.196903228759766,0.0,38.83952331542969,-37.52122116088867,24.451095581054688,-28.793447494506836,20.397748947143555,0.0
2056,-2.936767578125,-3.827392578125,-4.921142578125,7.511450290679932,-7.526717662811279,4.595419883728027,-33.73744583129883,25.223512649536133,0.0,38.877079010009766,-37.55885314941406,24.47407341003418,-28.78974723815918,20.393169403076172,0.0
2061,-2.936767578125,-3.828125,-4.93310546875,7.175572395324707,-7.496183395385742,4.641221523284912,-33.69511413574219,25.188493728637695,0.0,38.91295623779297,-37.59633255004883,24.49728012084961,-28.787445068359375,20.388525009155273,0.0
2066,-2.93701171875,-3.825927734375,-4.927978515625,7.755725383758545,-7.755725383758545,4.549618244171143,-33.69965362548828,25.209415435791016,0.0,38.95173645019531,-37.63511276245117,24.520029067993164,-28.782297134399414,20.38275718688965,0.0
2071,-2.93310546875,-3.82763671875,-4.923828125,7.5877861976623535,-7.206106662750244,4.595419883728027,-33.737144470214844,25.187929153442383,0.0,38.98967361450195,-37.671142578125,24.543006896972656,-28.778263092041016,20.379602432250977,0.0
2076,-2.933349609375,-3.825439453125,-4.925048828125,7.541984558105469,-7.328244209289551,4.702290058135986,-33.71653366088867,25.191125869750977,0.0,39.027381896972656,-37.70778274536133,24.566518783569336,-28.774333953857422,20.375873565673828,0.0
2081,-2.93701171875,-3.826416015625,-4.921875,7.541984558105469,-7.129770755767822,4.641221523284912,-33.72721481323242,25.22542381286621,0.0,39.06509017944336,-37.743431091308594,24.589725494384766,-28.77049446105957,20.373380661010742,0.0
2086,-2.93701171875,-3.82470703125,-4.918212890625,7.5877861976623535,-7.206106662750244,4.809160232543945,-33.72991180419922,25.23939323425293,0.0,39.10302734375,-37.77946090698242,24.613771438598633,-28.766462326049805,20.3706111907959,0.0
2091,-2.930908203125,-3.82568359375,-4.92236328125,7.267175674438477,-7.389312744140625,4.610687255859375,-33.734642028808594,25.179729461669922,0.0,39.13936233520508,-37.81640625,24.636825561523438,-28.76407241821289,20.366535186767578,0.0
2096,-2.938232421875,-3.82763671875,-4.929931640625,7.389312744140625,-7.068702220916748,4.885496139526367,-33.70085144042969,25.209426879882812,0.0,39.176307678222656,-37.851749420166016,24.661252975463867,-28.760852813720703,20.36427116394043,0.0
2101,-2.935546875,-3.825439453125,-4.92578125,7.4809160232543945,-7.3740458488464355,4.732824325561523,-33.70844268798828,25.20560646057129,0.0,39.21371078491211,-37.88861846923828,24.684917449951172,-28.75724220275879,20.360471725463867,0.0
2106,-2.933837890625,-3.82568359375,-4.925537109375,7.526717662811279,-7.526717662811279,4.839694499969482,-33.71513366699219,25.19290542602539,0.0,39.2513427734375,-37.92625045776367,24.709115982055664,-28.75346565246582,20.355844497680664,0.0
2111,-2.9384765625,-3.82763671875,-4.925048828125,7.465648651123047,-7.328244209289551,4.488549709320068,-33.71961212158203,25.224910736083984,0.0,39.28866958618164,-37.962890625,24.731557846069336,-28.75004005432129,20.352441787719727,0.0
2116,-2.9384765625,-3.827392578125,-4.925537109375,8.061068534851074,-7.5877861976623535,4.534351348876953,-33.71598815917969,25.224075317382812,0.0,39.328975677490234,-38.00082778930664,24.754230499267578,-28.7436466217041,20.347759246826172,0.0
2121,-2.93994140625,-3.8251953125,-4.9208984375,7.3740458488464355,-7.206106662750244,4.396946430206299,-33.7157096862793,25.25284767150879,0.0,39.3658447265625,-38.03685760498047,24.776214599609375,-28.740697860717773,20.345191955566406,0.0
2127,-2.93896484375,-3.822998046875,-4.925537109375,7.4809160232543945,-7.389312744140625,4.473282337188721,-33.684452056884766,25.237295150756836,0.0,39.410728454589844,-38.08119201660156,24.803054809570312,-28.729684829711914,20.334373474121094,0.0
2132,-2.94091796875,-3.8310546875,-4.921142578125,7.389312744140625,-7.221374034881592,4.56488561630249,-33.7529296875,25.246749877929688,0.0,39.44767379760742,-38.1172981262207,24.82588005065918,-28.72708511352539,20.331857681274414,0.0
2137,-2.939208984375,-3.822265625,-4.9267578125,7.511450290679932,-7.267175674438477,4.641221523284912,-33.673973083496094,25.237302780151367,0.0,39.4852294921875,-38.15363311767578,24.84908676147461,-28.723352432250977,20.329057693481445,0.0
2142,-2.9384765625,-3.825927734375,-4.927490234375,7.648854732513428,-7.572519302368164,4.641221523284912,-33.69812774658203,25.22179412841797,0.0,39.523475646972656,-38.19149398803711,24.87229347229004,-28.7191162109375,20.324644088745117,0.0
2147,-2.9384765625,-3.825927734375,-4.92333984375,7.4809160232543945,-7.343511581420898,4.656488418579102,-33.714569091796875,25.23340606689453,0.0,39.56087875366211,-38.22821044921875,24.89557647705078,-28.715845108032227,20.32146644592285,0.0
2152,-2.935546875,-3.8271484375,-4.919921875,7.4809160232543945,-6.961832046508789,4.977099418640137,-33.74348831176758,25.21827507019043,0.0,39.59828186035156,-38.26301956176758,24.920461654663086,-28.712783813476562,20.32009506225586,0.0
2157,-2.9345703125,-3.828857421875,-4.925537109375,7.526717662811279,-7.190839767456055,4.870229244232178,-33.73534393310547,25.191524505615234,0.0,39.63591384887695,-38.298973083496094,24.944812774658203,-28.709449768066406,20.317405700683594,0.0
2162,-2.933837890625,-3.825439453125,-4.920654296875,7.43511438369751,-7.389312744140625,4.839694499969482,-33.73280715942383,25.20708465576172,0.0,39.67308807373047,-38.33591842651367,24.969011306762695,-28.706567764282227,20.313844680786133,0.0
2167,-2.93212890625,-3.825927734375,-4.93212890625,7.618320465087891,-7.404580116271973,4.610687255859375,-33.694725036621094,25.16111183166504,0.0,39.711177825927734,-38.37294006347656,24.9920654296875,-28.70252799987793,20.309911727905273,0.0
2172,-2.936279296875,-3.82275390625,-4.923583984375,7.572519302368164,-7.3740458488464355,4.595419883728027,-33.696842193603516,25.223094940185547,0.0,39.74903869628906,-38.40980911254883,25.015043258666992,-28.698749542236328,20.306568145751953,0.0
2177,-2.9404296875,-3.82861328125,-4.92431640625,7.312977313995361,-7.007633686065674,4.473282337188721,-33.72464370727539,25.23951530456543,0.0,39.78560256958008,-38.444847106933594,25.03740882873535,-28.69646453857422,20.3051700592041,0.0
2182,-2.93505859375,-3.830078125,-4.92919921875,7.358778476715088,-7.450381755828857,4.335877895355225,-33.72810745239258,25.182321548461914,0.0,39.82239532470703,-38.48209762573242,25.0590877532959,-28.69398307800293,20.30118751525879,0.0
2187,-2.93505859375,-3.828857421875,-4.92431640625,7.43511438369751,-7.267175674438477,4.748091697692871,-33.73902893066406,25.198604583740234,0.0,39.85956954956055,-38.5184326171875,25.082828521728516,-28.691204071044922,20.29824447631836,0.0
2192,-2.935546875,-3.8251953125,-4.925048828125,7.43511438369751,-7.099236488342285,4.748091697692871,-33.70965576171875,25.20818328857422,0.0,39.89674377441406,-38.55392837524414,25.106569290161133,-28.688236236572266,20.29621124267578,0.0
2197,-2.93017578125,-3.828857421875,-4.9248046875,7.832061290740967,-7.206106662750244,4.381679534912109,-33.748626708984375,25.160512924194336,0.0,39.93590545654297,-38.58995819091797,25.128477096557617,-28.683574676513672,20.293331146240234,0.0
2202,-2.931884765625,-3.82421875,-4.93212890625,7.2366414070129395,-7.267175674438477,5.297709941864014,-33.68348693847656,25.16297721862793,0.0,39.97208786010742,-38.62629318237305,25.154966354370117,-28.68145179748535,20.290176391601562,0.0
2208,-2.9326171875,-3.8291015625,-4.931396484375,7.511450290679932,-7.557251930236816,4.717557430267334,-33.71841049194336,25.159954071044922,0.0,40.0096435546875,-38.66407775878906,25.17855453491211,-28.678205490112305,20.285573959350586,0.0
2213,-2.935302734375,-3.8251953125,-4.922607421875,7.633587837219238,-7.160305500030518,4.549618244171143,-33.71990966796875,25.21317481994629,0.0,40.05544662475586,-38.70703887939453,25.205852508544922,-28.666894912719727,20.276309967041016,0.0
2218,-2.93798828125,-3.82470703125,-4.924560546875,7.328244209289551,-7.404580116271973,4.396946430206299,-33.70244216918945,25.228971481323242,0.0,40.09208679199219,-38.74406051635742,25.22783660888672,-28.664630889892578,20.273103713989258,0.0
2223,-2.93359375,-3.827392578125,-4.92578125,7.5877861976623535,-7.358778476715088,4.27480936050415,-33.726558685302734,25.186677932739258,0.0,40.13002395629883,-38.780853271484375,25.249210357666016,-28.66124725341797,20.269851684570312,0.0
2228,-2.936279296875,-3.824462890625,-4.926025390625,7.511450290679932,-7.160305500030518,4.213740348815918,-33.69898986816406,25.212553024291992,0.0,40.167579650878906,-38.816654205322266,25.270278930664062,-28.658069610595703,20.26777458190918,0.0
2233,-2.9375,-3.83203125,-4.92626953125,7.526717662811279,-7.343511581420898,4.4122138023376465,-33.74744415283203,25.20461082458496,0.0,40.2052116394043,-38.853370666503906,25.292339324951172,-28.6551570892334,20.264738082885742,0.0
2238,-2.933837890625,-3.826416015625,-4.919921875,7.572519302368164,-7.328244209289551,4.900763511657715,-33.742469787597656,25.20701026916504,0.0,40.243072509765625,-38.890010833740234,25.316843032836914,-28.651994705200195,20.26180648803711,0.0
2243,-2.9375,-3.8271484375,-4.927978515625,7.328244209289551,-7.41984748840332,4.717557430267334,-33.706939697265625,25.210437774658203,0.0,40.27971267700195,-38.92710876464844,25.340431213378906,-28.649816513061523,20.258455276489258,0.0
2248,-2.931396484375,-3.82666015625,-4.9208984375,7.70992374420166,-7.465648651123047,4.702290058135986,-33.746055603027344,25.185375213623047,0.0,40.31826400756836,-38.96443557739258,25.363943099975586,-28.646015167236328,20.25472068786621,0.0
2253,-2.932373046875,-3.827880859375,-4.92529296875,7.465648651123047,-7.526717662811279,4.732824325561523,-33.7347526550293,25.177799224853516,0.0,40.3555908203125,-39.00206756591797,25.38760757446289,-28.643367767333984,20.250648498535156,0.0
2258,-2.9365234375,-3.8251953125,-4.92431640625,7.450381755828857,-7.572519302368164,4.671755790710449,-33.71025085449219,25.21757698059082,0.0,40.39284133911133,-39.0399284362793,25.410966873168945,-28.640640258789062,20.24663734436035,0.0
2263,-2.935302734375,-3.828369140625,-4.927001953125,7.572519302368164,-7.282442569732666,4.656488418579102,-33.724430084228516,25.193998336791992,0.0,40.430702209472656,-39.07633972167969,25.434249877929688,-28.637413024902344,20.243928909301758,0.0
2268,-2.937255859375,-3.828125,-4.928466796875,7.4809160232543945,-6.977099418640137,4.946564674377441,-33.71232986450195,25.20511817932129,0.0,40.46810531616211,-39.11122512817383,25.458982467651367,-28.634571075439453,20.242820739746094,0.0
2273,-2.935791015625,-3.82568359375,-4.921630859375,7.206106662750244,-7.251908302307129,4.748091697692871,-33.72600555419922,25.218517303466797,0.0,40.50413513183594,-39.147483825683594,25.482723236083984,-28.63319969177246,20.24043846130371,0.0
2278,-2.933349609375,-3.830322265625,-4.925537109375,7.297709941864014,-7.2366414070129395,4.56488561630249,-33.748348236083984,25.17916488647461,0.0,40.54062271118164,-39.18366622924805,25.50554847717285,-28.63152313232422,20.23787498474121,0.0
2283,-2.932861328125,-3.83154296875,-4.924072265625,7.343511581420898,-7.022900581359863,4.56488561630249,-33.76374816894531,25.176929473876953,0.0,40.57733917236328,-39.218780517578125,25.52837371826172,-28.62972640991211,20.23636817932129,0.0
2289,-2.93505859375,-3.827392578125,-4.92333984375,7.496183395385742,-7.083969593048096,4.6259541511535645,-33.7327766418457,25.20451545715332,0.0,40.61481857299805,-39.25419998168945,25.551504135131836,-28.626968383789062,20.2347469329834,0.0
2294,-2.935546875,-3.828369140625,-4.922607421875,7.526717662811279,-7.160305500030518,4.3053436279296875,-33.741275787353516,25.208112716674805,0.0,40.65998077392578,-39.29716110229492,25.577335357666016,-28.616750717163086,20.225759506225586,0.0
2299,-2.937255859375,-3.826171875,-4.924072265625,7.190839767456055,-7.038167953491211,4.702290058135986,-33.71623992919922,25.22164535522461,0.0,40.6959342956543,-39.33235168457031,25.600847244262695,-28.615568161010742,20.224634170532227,0.0
2304,-2.936279296875,-3.826904296875,-4.9248046875,7.404580116271973,-7.404580116271973,4.809160232543945,-33.72071075439453,25.210662841796875,0.0,40.73295593261719,-39.3693733215332,25.624893188476562,-28.613351821899414,20.22161293029785,0.0
2309,-2.94091796875,-3.82470703125,-4.926025390625,7.312977313995361,-7.358778476715088,4.687022686004639,-33.689720153808594,25.246896743774414,0.0,40.7695198059082,-39.406166076660156,25.64832878112793,-28.611387252807617,20.21907615661621,0.0
2314,-2.9365234375,-3.82763671875,-4.92138671875,7.5877861976623535,-7.190839767456055,4.793893337249756,-33.73874282836914,25.220462799072266,0.0,40.807456970214844,-39.44211959838867,25.672298431396484,-28.608396530151367,20.217205047607422,0.0
2319,-2.9345703125,-3.826171875,-4.9296875,7.618320465087891,-7.603053569793701,4.5190839767456055,-33.70033264160156,25.18575668334961,0.0,40.84554672241211,-39.480133056640625,25.694894790649414,-28.605005264282227,20.213054656982422,0.0
2324,-2.937255859375,-3.830078125,-4.919189453125,7.358778476715088,-7.328244209289551,4.442748069763184,-33.76259994506836,25.226802825927734,0.0,40.88233947753906,-39.51677322387695,25.71710777282715,-28.60333824157715,20.2105655670166,0.0
2329,-2.93896484375,-3.826904296875,-4.927490234375,7.297709941864014,-7.70992374420166,4.427480697631836,-33.7037239074707,25.223342895507812,0.0,40.918827056884766,-39.55532455444336,25.73924446105957,-28.601579666137695,20.20616912841797,0.0
2334,-2.939208984375,-3.824462890625,-4.92333984375,7.465648651123047,-7.190839767456055,4.7633585929870605,-33.70270538330078,25.242097854614258,0.0,40.956153869628906,-39.591278076171875,25.7630615234375,-28.598983764648438,20.204498291015625,0.0
2339,-2.932861328125,-3.8271484375,-4.92431640625,7.358778476715088,-6.946564674377441,4.503816604614258,-33.73240661621094,25.185789108276367,0.0,40.99294662475586,-39.62601089477539,25.785579681396484,-28.597129821777344,20.203662872314453,0.0
2344,-2.941162109375,-3.82666015625,-4.9248046875,7.70992374420166,-7.3740458488464355,4.5190839767456055,-33.707481384277344,25.247901916503906,0.0,41.031497955322266,-39.662879943847656,25.808176040649414,-28.593368530273438,20.201122283935547,0.0
2349,-2.935546875,-3.825439453125,-4.927001953125,7.450381755828857,-7.083969593048096,4.870229244232178,-33.7036018371582,25.202192306518555,0.0,41.068748474121094,-39.698299407958984,25.83252716064453,-28.59088706970215,20.199724197387695,0.0
2354,-2.93310546875,-3.82568359375,-4.927734375,7.603053569793701,-7.068702220916748,4.961832046508789,-33.70814895629883,25.181255340576172,0.0,41.10676193237305,-39.733642578125,25.857336044311523,-28.587688446044922,20.19826316833496,0.0
2359,-2.93505859375,-3.827880859375,-4.9189453125,7.465648651123047,-7.343511581420898,4.56488561630249,-33.75358200073242,25.21573829650879,0.0,41.14408874511719,-39.77035903930664,25.88016128540039,-28.585491180419922,20.19567108154297,0.0
2364,-2.940673828125,-3.8291015625,-4.92578125,7.5877861976623535,-7.343511581420898,4.549618244171143,-33.72163772583008,25.23619270324707,0.0,41.18202590942383,-39.80707550048828,25.902910232543945,-28.58247947692871,20.193227767944336,0.0
2370,-2.939453125,-3.83154296875,-4.930908203125,7.43511438369751,-7.328244209289551,4.717557430267334,-33.72108459472656,25.207395553588867,0.0,41.219200134277344,-39.84371566772461,25.926498413085938,-28.58023452758789,20.190673828125,0.0
2375,-2.939208984375,-3.8232421875,-4.923828125,7.267175674438477,-7.221374034881592,4.351145267486572,-33.69232940673828,25.243385314941406,0.0,41.26280212402344,-39.88704299926758,25.952606201171875,-28.57151985168457,20.18183135986328,0.0
2380,-2.934326171875,-3.825927734375,-4.913818359375,7.526717662811279,-6.977099418640137,4.824427604675293,-33.76216125488281,25.228822708129883,0.0,41.30043411254883,-39.92192840576172,25.976728439331055,-28.569257736206055,20.18132781982422,0.0
2385,-2.9404296875,-3.831298828125,-4.927490234375,7.70992374420166,-7.14503812789917,4.259541988372803,-33.73062515258789,25.22480583190918,0.0,41.338985443115234,-39.9576530456543,25.99802589416504,-28.565879821777344,20.17995834350586,0.0
2390,-2.9375,-3.82421875,-4.927001953125,7.343511581420898,-7.099236488342285,4.778625965118408,-33.6905517578125,25.219528198242188,0.0,41.375701904296875,-39.99314880371094,26.02191925048828,-28.564064025878906,20.178781509399414,0.0
2395,-2.9375,-3.82421875,-4.9267578125,7.679389476776123,-7.221374034881592,4.732824325561523,-33.6915168762207,25.220211029052734,0.0,41.414100646972656,-40.02925491333008,26.045583724975586,-28.560590744018555,20.177001953125,0.0
2400,-2.933349609375,-3.82666015625,-4.924072265625,7.603053569793701,-7.43511438369751,4.656488418579102,-33.72884750366211,25.191204071044922,0.0,41.45211410522461,-40.066429138183594,26.068866729736328,-28.557764053344727,20.173969268798828,0.0
2405,-2.936279296875,-3.828125,-4.930419921875,7.633587837219238,-7.465648651123047,4.641221523284912,-33.7068977355957,25.192323684692383,0.0,41.49028015136719,-40.103755950927734,26.092073440551758,-28.554649353027344,20.170804977416992,0.0
2410,-2.93603515625,-3.824462890625,-4.924560546875,7.2366414070129395,-7.43511438369751,4.473282337188721,-33.70537185668945,25.214813232421875,0.0,41.52646255493164,-40.14093017578125,26.114439010620117,-28.553510665893555,20.167957305908203,0.0
2415,-2.93603515625,-3.8271484375,-4.93212890625,7.465648651123047,-7.328244209289551,4.396946430206299,-33.6939582824707,25.187833786010742,0.0,41.56378936767578,-40.17757034301758,26.136423110961914,-28.55115509033203,20.165470123291016,0.0
2420,-2.934814453125,-3.826171875,-4.935546875,7.312977313995361,-7.526717662811279,4.56488561630249,-33.67655944824219,25.171232223510742,0.0,41.6003532409668,-40.21520233154297,26.15924835205078,-28.549448013305664,20.161893844604492,0.0
2425,-2.935791015625,-3.8291015625,-4.924560546875,7.297709941864014,-7.4809160232543945,4.992366313934326,-33.73801803588867,25.202899932861328,0.0,41.6368408203125,-40.25260543823242,26.1842098236084,-28.548236846923828,20.158777236938477,0.0
2430,-2.93408203125,-3.828369140625,-4.922119140625,7.541984558105469,-7.541984558105469,4.824427604675293,-33.74667739868164,25.19845962524414,0.0,41.6745491027832,-40.290313720703125,26.208332061767578,-28.54587173461914,20.15534019470215,0.0
2435,-2.93798828125,-3.826904296875,-4.92529296875,7.72519063949585,-7.312977313995361,4.687022686004639,-33.71473693847656,25.222148895263672,0.0,41.71317672729492,-40.32687759399414,26.231767654418945,-28.542390823364258,20.153215408325195,0.0
2440,-2.93408203125,-3.828857421875,-4.922607421875,7.221374034881592,-7.41984748840332,4.793893337249756,-33.74811553955078,25.196033477783203,0.0,41.74928283691406,-40.363975524902344,26.2557373046875,-28.54165267944336,20.150392532348633,0.0
2445,-2.935791015625,-3.82275390625,-4.923095703125,7.053435325622559,-7.343511581420898,4.85496187210083,-33.69993209838867,25.220788955688477,0.0,41.784549713134766,-40.400691986083984,26.280012130737305,-28.54142189025879,20.14812660217285,0.0
2450,-2.9326171875,-3.828125,-4.93310546875,7.267175674438477,-7.404580116271973,4.503816604614258,-33.704891204833984,25.157302856445312,0.0,41.820884704589844,-40.437713623046875,26.30253028869629,-28.540157318115234,20.145137786865234,0.0
2456,-2.93701171875,-3.829833984375,-4.92333984375,7.282442569732666,-7.038167953491211,5.038167953491211,-33.745033264160156,25.213897705078125,0.0,41.86457824707031,-40.479942321777344,26.332759857177734,-28.53195571899414,20.13747215270996,0.0
2461,-2.934326171875,-3.825439453125,-4.919921875,7.465648651123047,-7.312977313995361,4.961832046508789,-33.73455810546875,25.21280860900879,0.0,41.90190505981445,-40.51650619506836,26.357568740844727,-28.530054092407227,20.135467529296875,0.0
2466,-2.9365234375,-3.82177734375,-4.919189453125,7.312977313995361,-7.358778476715088,4.717557430267334,-33.70692443847656,25.239360809326172,0.0,41.93846893310547,-40.55329895019531,26.38115692138672,-28.528728485107422,20.133420944213867,0.0
2471,-2.933349609375,-3.825439453125,-4.931884765625,7.4809160232543945,-7.496183395385742,4.717557430267334,-33.6894416809082,25.172029495239258,0.0,41.97587203979492,-40.59077835083008,26.40474510192871,-28.526453018188477,20.1302433013916,0.0
